acc_x,acc_y,acc_z,gyro_x,gyro_y,gyro_z
0.19160156250000002,-0.124541015625,1.1662047440699137,-0.04756355289786074,0.02438131703167651,0.014122511504686942
0.18202148437500001,-0.1772314453125,1.1308239700374525,-0.04942879026640429,0.026113323159609816,0.013056661579804908
0.2347119140625,-0.11256591796875001,1.1444319600499373,-0.05249310880044014,0.026513016881440574,0.014255742745297196
0.16046630859375,-0.13651611328125002,1.1607615480649187,-0.049162327785183785,0.02771209804693287,0.011724349173702365
0.11735595703125,-0.17244140625,1.2614606741573038,-0.04862940282274277,0.02997702913730719,0.018119448722994567
0.20597167968750002,-0.143701171875,1.2396878901373292,-0.048229709100912004,0.02984379789669693,0.01438897398590745
0.12693603515625002,-0.20597167968750002,1.2151935081148562,-0.04996171522884531,0.030376722859137947,0.01692036755750228
0.21555175781250002,-0.16525634765625,1.1798127340823967,-0.0511607963943376,0.027578866806322613,0.017852986241774057
0.22034179687500002,-0.11735595703125,1.152596754057429,-0.04996171522884531,0.02478101075350727,0.013722817782856177
0.143701171875,-0.14130615234375002,1.0600624219725336,-0.050094946469455566,0.025980091918999557,0.014921898948348465
0.18202148437500001,-0.14609619140625002,1.2315230961298376,-0.04956202150701454,0.02131699849764067,0.011058192970651094
0.17004638671875,-0.11735595703125,1.2505742821473174,-0.04996171522884531,0.023581929588014985,0.01572128639200999
0.162861328125,-0.11256591796875001,1.1553183520599255,-0.05049464019128632,0.021716692219471426,0.0191852986478766
0.17962646484375,-0.1772314453125,1.2260799001248444,-0.05129402763494785,0.024914241994117528,0.014255742745297196
0.18202148437500001,-0.19399658203125,1.190699126092385,-0.05036140895067608,0.025047473234727783,0.013323124061025416
0.21794677734375,-0.1293310546875,1.2070287141073646,-0.049162327785183785,0.02784532928754312,0.017186830038722786
0.16525634765625,-0.22752685546875,1.0682272159800252,-0.05129402763494785,0.02691271060327134,0.015987748873230498
0.15088623046875002,-0.1389111328125,1.1716479400749051,-0.05036140895067608,0.03077641658096871,0.017186830038722786
0.162861328125,-0.1197509765625,1.310449438202248,-0.05249310880044014,0.032108728987071254,0.013589586542245922
0.17244140625,-0.1580712890625,1.1988639200998765,-0.05182695259738886,0.027312404325102103,0.015588055151399738
0.16525634765625,-0.13412109375,1.2532958801498122,-0.05182695259738886,0.028378254249984136,0.017453292519943295
0.20118164062500002,-0.09580078125000001,1.1144943820224729,-0.053292496244101664,0.023049004625573973,0.013989280264076687
0.22752685546875,-0.1484912109375,1.228801498127341,-0.047963246619691494,0.02424808579106626,0.012923430339194655
0.21315673828125,-0.18202148437500001,1.1879775280898883,-0.048362940341522255,0.02424808579106626,0.015588055151399738
0.229921875,-0.17004638671875,1.1607615480649187,-0.049695252747624805,0.02078407353519965,0.016520673835671518
0.19399658203125,-0.1197509765625,1.152596754057429,-0.05076110267250683,0.02331546710679448,0.014788667707738212
0.18441650390625,-0.143701171875,1.095443196004993,-0.04689739669480946,0.028111791768763626,0.017186830038722786
0.15328125,-0.1293310546875,1.133545568039949,-0.04902909654457353,0.029310872934255914,0.015588055151399738
0.19160156250000002,-0.17244140625,1.1553183520599255,-0.05036140895067608,0.02624655440022007,0.017186830038722786
0.1676513671875,-0.15328125,1.2097503121098612,-0.04902909654457353,0.024114854550456002,0.013989280264076687
0.19878662109375,-0.143701171875,1.190699126092385,-0.050094946469455566,0.026646248122050832,0.016254211354451008
0.17962646484375,-0.1580712890625,1.2396878901373292,-0.050094946469455566,0.02278254214435346,0.015854517632620243
0.20836669921875,-0.124541015625,1.1117727840199763,-0.04849617158213252,0.025447166956558544,0.01532159267017923
0.22273681640625,-0.13412109375,1.0682272159800252,-0.049828483988235056,0.0255803981971688,0.01638744259506126
0.17004638671875,-0.14609619140625002,1.0736704119850184,-0.05249310880044014,0.029444104174866172,0.01345635530163567
0.229921875,-0.18441650390625,1.2532958801498122,-0.05089433391311709,0.03317457891195329,0.017186830038722786
0.17244140625,-0.11735595703125,1.1934207240948815,-0.05036140895067608,0.0305099540997482,0.01665390507628177
0.18441650390625,-0.11256591796875001,1.1444319600499373,-0.05036140895067608,0.030376722859137947,0.016787136316892024
0.0814306640625,-0.124541015625,1.0899999999999999,-0.05062787143189658,0.026779479362661087,0.01505513018895872
0.15088623046875002,-0.09819580078125001,1.100886392009988,-0.05289280252227091,0.023981623309845747,0.017986217482384312
0.19160156250000002,-0.15328125,1.2124719101123596,-0.049828483988235056,0.01985145485092787,0.014255742745297196
0.19639160156250002,-0.16046630859375,1.152596754057429,-0.049295559025794036,0.01572128639200999,0.012523736617363892
0.16046630859375,-0.1389111328125,1.138988764044944,-0.05062787143189658,0.016254211354451008,0.018785604926045835
0.17244140625,-0.1197509765625,1.1308239700374525,-0.05062787143189658,0.021050536016420155,0.0127901990985844
0.22034179687500002,-0.1197509765625,1.1117727840199763,-0.05222664631921963,0.021716692219471426,0.01532159267017923
0.22513183593750002,-0.16046630859375,1.2151935081148562,-0.05062787143189658,0.02571362943777905,0.018119448722994567
0.18920654296875,-0.1149609375,1.1036079900124847,-0.050094946469455566,0.027312404325102103,0.014788667707738212
0.19878662109375,-0.15328125,1.1172159800249695,-0.049695252747624805,0.03437366007744557,0.015454823910789482
0.17962646484375,-0.17962646484375,1.1716479400749051,-0.05049464019128632,0.03344104139317379,0.015588055151399738
0.13412109375,-0.15328125,1.1172159800249695,-0.04862940282274277,0.036771822408430146,0.015987748873230498
0.19878662109375,-0.18202148437500001,1.138988764044944,-0.049828483988235056,0.03530627876171735,0.01638744259506126
0.16046630859375,-0.16525634765625,1.2315230961298376,-0.05249310880044014,0.031176110302799476,0.014255742745297196
0.17483642578125,-0.13651611328125002,1.2424094881398258,-0.05262634004105039,0.02771209804693287,0.01638744259506126
0.17962646484375,-0.15328125,1.1417103620474407,-0.049695252747624805,0.023848392069235495,0.014255742745297196
0.1772314453125,-0.16525634765625,1.0845568039950049,-0.05062787143189658,0.018385911204215073,0.01572128639200999
0.16046630859375,-0.18681152343750002,1.1498751560549323,-0.05022817771006582,0.018119448722994567,0.01665390507628177
0.15088623046875002,-0.162861328125,1.1825343320848933,-0.050094946469455566,0.019052067407266345,0.01665390507628177
0.17244140625,-0.09340576171875001,1.1798127340823967,-0.053159265003491406,0.017719755001163802,0.015588055151399738
0.162861328125,-0.14130615234375002,1.163483146067417,-0.05076110267250683,0.018785604926045835,0.01732006127933304
0.22273681640625,-0.17004638671875,1.2151935081148562,-0.049695252747624805,0.02438131703167651,0.014788667707738212
0.1676513671875,-0.16046630859375,1.125380774032461,-0.049295559025794036,0.0305099540997482,0.014522205226517704
0.13651611328125002,-0.1389111328125,1.0981647940074897,-0.0511607963943376,0.0337075038743943,0.016787136316892024
0.12214599609375,-0.12693603515625002,1.0546192259675404,-0.05249310880044014,0.031975497746460996,0.016787136316892024
0.16046630859375,-0.1484912109375,1.1117727840199763,-0.049162327785183785,0.027312404325102103,0.01665390507628177
0.1772314453125,-0.1580712890625,1.2315230961298376,-0.05235987755982988,0.026113323159609816,0.01572128639200999
0.18920654296875,-0.15088623046875002,1.158039950062422,-0.051960183837999115,0.021849923460081685,0.011591117933092112
0.13651611328125002,-0.18920654296875,1.2369662921348326,-0.04996171522884531,0.020650842294589397,0.016254211354451008
0.17962646484375,-0.162861328125,1.152596754057429,-0.05062787143189658,0.02078407353519965,0.013989280264076687
0.19160156250000002,-0.09101074218750001,1.2696254681647936,-0.049295559025794036,0.026113323159609816,0.014255742745297196
0.18920654296875,-0.11017089843750001,1.1417103620474407,-0.049162327785183785,0.02997702913730719,0.016520673835671518
0.22513183593750002,-0.14609619140625002,1.2396878901373292,-0.049295559025794036,0.03144257278401998,0.013856049023466434
0.1772314453125,-0.15088623046875002,1.2342446941323342,-0.04783001537908124,0.03277488519012252,0.01692036755750228
0.10059082031250001,-0.10777587890625001,1.1036079900124847,-0.05102756515372735,0.0337075038743943,0.015854517632620243
0.143701171875,-0.19399658203125,1.1036079900124847,-0.051960183837999115,0.02984379789669693,0.015188361429568973
0.1389111328125,-0.15088623046875002,1.1308239700374525,-0.05022817771006582,0.024114854550456002,0.014655436467127957
0.19639160156250002,-0.18920654296875,1.119937578027466,-0.0511607963943376,0.02131699849764067,0.01638744259506126
0.124541015625,-0.11256591796875001,1.1743695380774035,-0.05302603376288115,0.016520673835671518,0.011724349173702365
0.17483642578125,-0.15328125,1.2151935081148562,-0.048229709100912004,0.008393568158446012,0.01891883616665609
0.22752685546875,-0.20836669921875,1.1498751560549323,-0.0514272588755581,0.013589586542245922,0.017719755001163802
0.1580712890625,-0.19399658203125,1.163483146067417,-0.05182695259738886,0.017719755001163802,0.01692036755750228
0.19399658203125,-0.21315673828125,1.0899999999999999,-0.0511607963943376,0.0255803981971688,0.012257274136143383
0.18920654296875,-0.15328125,1.2206367041198494,-0.047963246619691494,0.03583920372415837,0.014522205226517704
0.14609619140625002,-0.1293310546875,1.152596754057429,-0.049828483988235056,0.03743797861148142,0.015987748873230498
0.15328125,-0.1676513671875,1.1716479400749051,-0.05102756515372735,0.04116845334856853,0.013856049023466434
0.14130615234375002,-0.1772314453125,1.152596754057429,-0.05089433391311709,0.03797090357392244,0.014788667707738212
0.19878662109375,-0.162861328125,1.1689263420724085,-0.0511607963943376,0.03424042883683532,0.016787136316892024
0.21555175781250002,-0.20597167968750002,1.138988764044944,-0.05222664631921963,0.027445635565712355,0.014655436467127957
0.13651611328125002,-0.1149609375,1.2233583021223478,-0.048229709100912004,0.02131699849764067,0.017586523760553547
0.15328125,-0.12693603515625002,1.18525593008739,-0.05182695259738886,0.014255742745297196,0.014255742745297196
0.2347119140625,-0.16525634765625,1.1770911360799001,-0.05182695259738886,0.01345635530163567,0.017186830038722786
0.20597167968750002,-0.20836669921875,1.2015855181023731,-0.05169372135677862,0.01532159267017923,0.017719755001163802
0.2442919921875,-0.16525634765625,1.163483146067417,-0.04956202150701454,0.015854517632620243,0.013856049023466434
0.25626708984375,-0.14130615234375002,1.158039950062422,-0.05036140895067608,0.022649310903743208,0.014921898948348465
0.15567626953125,-0.20597167968750002,1.0736704119850184,-0.051960183837999115,0.02344869834740473,0.013722817782856177
0.1389111328125,-0.18441650390625,1.1498751560549323,-0.04876263406335302,0.031176110302799476,0.01438897398590745
0.17004638671875,-0.1293310546875,1.0845568039950049,-0.0511607963943376,0.0369050536490404,0.017186830038722786
0.15328125,-0.17962646484375,1.125380774032461,-0.049295559025794036,0.036105666205378875,0.018785604926045835
0.14130615234375002,-0.20118164062500002,1.2260799001248444,-0.05235987755982988,0.03410719759622506,0.013856049023466434
0.17962646484375,-0.14609619140625002,1.0927215980024965,-0.04769678413847099,0.03357427263378405,0.01638744259506126
0.19399658203125,-0.17244140625,1.0791136079900134,-0.049828483988235056,0.026513016881440574,0.01345635530163567
0.13651611328125002,-0.15567626953125,1.1716479400749051,-0.05089433391311709,0.024514548272286767,0.01438897398590745
0.17483642578125,-0.1149609375,1.2206367041198494,-0.051960183837999115,0.02331546710679448,0.018385911204215073
0.13651611328125002,-0.18681152343750002,1.2043071161048697,-0.048362940341522255,0.020251148572758632,0.017986217482384312
0.17483642578125,-0.162861328125,1.100886392009988,-0.05102756515372735,0.019984686091538122,0.014522205226517704
0.1389111328125,-0.1580712890625,1.2124719101123596,-0.05022817771006582,0.01945176112909711,0.017453292519943295
0.20597167968750002,-0.15088623046875002,1.2043071161048697,-0.049828483988235056,0.019984686091538122,0.016520673835671518
0.16525634765625,-0.20597167968750002,1.1743695380774035,-0.04902909654457353,0.02371516082862524,0.01505513018895872
0.18441650390625,-0.15567626953125,1.2206367041198494,-0.049828483988235056,0.026646248122050832,0.015987748873230498
0.19639160156250002,-0.162861328125,1.125380774032461,-0.05102756515372735,0.026779479362661087,0.01345635530163567
0.229921875,-0.14130615234375002,1.2315230961298376,-0.05062787143189658,0.024647779512897018,0.015454823910789482
0.1772314453125,-0.1484912109375,1.1498751560549323,-0.05129402763494785,0.028378254249984136,0.016254211354451008
0.21076171875000002,-0.16046630859375,1.1825343320848933,-0.04942879026640429,0.0287779479718149,0.013989280264076687
0.1484912109375,-0.16525634765625,1.095443196004993,-0.04942879026640429,0.03144257278401998,0.01505513018895872
0.17483642578125,-0.14609619140625002,1.1879775280898883,-0.049828483988235056,0.03144257278401998,0.01705359879811253
0.1484912109375,-0.1772314453125,1.2424094881398258,-0.05209341507860938,0.030376722859137947,0.016254211354451008
0.17962646484375,-0.124541015625,1.310449438202248,-0.048362940341522255,0.02851148549059439,0.012656967857974145
0.20597167968750002,-0.1484912109375,1.228801498127341,-0.04996171522884531,0.0255803981971688,0.015588055151399738
0.14609619140625002,-0.15328125,1.2396878901373292,-0.0511607963943376,0.023981623309845747,0.01692036755750228
0.15328125,-0.15567626953125,1.228801498127341,-0.049162327785183785,0.018385911204215073,0.016787136316892024
0.1293310546875,-0.11735595703125,1.1770911360799001,-0.05036140895067608,0.019984686091538122,0.014255742745297196
0.16046630859375,-0.10538085937500001,1.2097503121098612,-0.048229709100912004,0.021983154700691936,0.015188361429568973
0.162861328125,-0.1389111328125,1.1444319600499373,-0.04902909654457353,0.022116385941302188,0.011591117933092112
0.17004638671875,-0.18441650390625,1.1498751560549323,-0.049695252747624805,0.021849923460081685,0.015188361429568973
0.19160156250000002,-0.18681152343750002,1.125380774032461,-0.049828483988235056,0.019984686091538122,0.013989280264076687
0.19639160156250002,-0.17483642578125,1.1662047440699137,-0.05102756515372735,0.025980091918999557,0.013989280264076687
0.19878662109375,-0.18202148437500001,1.1144943820224729,-0.051960183837999115,0.03077641658096871,0.01572128639200999
0.162861328125,-0.20357666015625,1.1417103620474407,-0.04956202150701454,0.03290811643073278,0.015987748873230498
0.19878662109375,-0.15567626953125,1.1934207240948815,-0.05022817771006582,0.031842266505850744,0.018119448722994567
0.143701171875,-0.17483642578125,1.0763920099875168,-0.050094946469455566,0.031842266505850744,0.016120980113840753
0.18202148437500001,-0.1676513671875,1.18525593008739,-0.04902909654457353,0.0337075038743943,0.015454823910789482
0.18202148437500001,-0.18681152343750002,1.125380774032461,-0.05156049011616837,0.03144257278401998,0.013056661579804908
0.19878662109375,-0.13172607421875002,1.1607615480649187,-0.05262634004105039,0.027578866806322613,0.015987748873230498
0.1772314453125,-0.19399658203125,1.2832334581772784,-0.04942879026640429,0.024647779512897018,0.01572128639200999
0.22273681640625,-0.162861328125,1.1607615480649187,-0.04809647786030175,0.02118376725703041,0.014255742745297196
0.18441650390625,-0.18681152343750002,1.2260799001248444,-0.05209341507860938,0.01931852988848685,0.016120980113840753
0.22034179687500002,-0.15088623046875002,1.2614606741573038,-0.05182695259738886,0.022649310903743208,0.01532159267017923
0.1197509765625,-0.16046630859375,1.2206367041198494,-0.049695252747624805,0.019984686091538122,0.014522205226517704
0.18202148437500001,-0.1484912109375,1.1825343320848933,-0.05062787143189658,0.018119448722994567,0.013056661579804908
0.258662109375,-0.18681152343750002,1.138988764044944,-0.05102756515372735,0.02118376725703041,0.017186830038722786
0.19639160156250002,-0.13651611328125002,1.2805118601747818,-0.047963246619691494,0.02078407353519965,0.015588055151399738
0.22273681640625,-0.12693603515625002,1.1988639200998765,-0.050094946469455566,0.021583460978861175,0.015854517632620243
0.17962646484375,-0.1484912109375,1.163483146067417,-0.04996171522884531,0.023581929588014985,0.01345635530163567
0.21794677734375,-0.17962646484375,1.0464544319600488,-0.05235987755982988,0.027179173084491845,0.015188361429568973
0.17962646484375,-0.19639160156250002,1.1689263420724085,-0.05129402763494785,0.02984379789669693,0.014255742745297196
0.14130615234375002,-0.14609619140625002,1.128102372034956,-0.05036140895067608,0.0337075038743943,0.01345635530163567
0.15328125,-0.18202148437500001,1.1444319600499373,-0.049695252747624805,0.0369050536490404,0.01638744259506126
0.17962646484375,-0.16525634765625,1.1879775280898883,-0.05076110267250683,0.037171516130260915,0.016787136316892024
0.14130615234375002,-0.18441650390625,1.2151935081148562,-0.049295559025794036,0.03130934154340973,0.01665390507628177
0.1484912109375,-0.21076171875000002,1.0546192259675404,-0.05049464019128632,0.031176110302799476,0.015588055151399738
0.162861328125,-0.12214599609375,1.1825343320848933,-0.05169372135677862,0.025047473234727783,0.016520673835671518
0.1580712890625,-0.20118164062500002,1.0763920099875168,-0.05022817771006582,0.020117917332148377,0.01665390507628177
0.21794677734375,-0.13412109375,1.1498751560549323,-0.05209341507860938,0.016787136316892024,0.01665390507628177
0.17004638671875,-0.17004638671875,1.1498751560549323,-0.053159265003491406,0.01891883616665609,0.013056661579804908
0.2347119140625,-0.15567626953125,1.1879775280898883,-0.04743032165725048,0.0191852986478766,0.015854517632620243
0.19878662109375,-0.143701171875,1.1743695380774035,-0.049695252747624805,0.025447166956558544,0.013056661579804908
0.22034179687500002,-0.17244140625,1.128102372034956,-0.049162327785183785,0.027045941843881597,0.01891883616665609
0.14609619140625002,-0.1293310546875,1.343108614232209,-0.05129402763494785,0.031042879062189218,0.014122511504686942
0.21315673828125,-0.055085449218750006,1.1716479400749051,-0.049162327785183785,0.031975497746460996,0.01532159267017923
0.22034179687500002,-0.1197509765625,1.122659176029961,-0.050094946469455566,0.028911179212425156,0.01438897398590745
0.1580712890625,-0.10059082031250001,1.1090511860174779,-0.047963246619691494,0.02784532928754312,0.01732006127933304
0.21076171875000002,-0.143701171875,1.1444319600499373,-0.04876263406335302,0.02438131703167651,0.015588055151399738
0.18681152343750002,-0.20357666015625,1.119937578027466,-0.049295559025794036,0.022649310903743208,0.012257274136143383
0.17004638671875,-0.17004638671875,1.125380774032461,-0.05129402763494785,0.029310872934255914,0.015454823910789482
0.18920654296875,-0.124541015625,1.0682272159800252,-0.05156049011616837,0.027978560528153375,0.017719755001163802
0.19639160156250002,-0.14130615234375002,1.190699126092385,-0.05209341507860938,0.025447166956558544,0.014255742745297196
0.20118164062500002,-0.124541015625,1.128102372034956,-0.051960183837999115,0.02624655440022007,0.012923430339194655
0.1772314453125,-0.17004638671875,1.147153558052434,-0.0514272588755581,0.02438131703167651,0.014122511504686942
0.15088623046875002,-0.12693603515625002,1.1362671660424475,-0.05089433391311709,0.027445635565712355,0.015987748873230498
0.1676513671875,-0.143701171875,1.18525593008739,-0.05235987755982988,0.02424808579106626,0.014122511504686942
0.21794677734375,-0.14130615234375002,1.1117727840199763,-0.049295559025794036,0.021849923460081685,0.017986217482384312
0.20597167968750002,-0.1293310546875,1.2043071161048697,-0.05062787143189658,0.021050536016420155,0.013722817782856177
0.22034179687500002,-0.1580712890625,1.1662047440699137,-0.05076110267250683,0.025447166956558544,0.013056661579804908
0.17244140625,-0.20836669921875,1.0600624219725336,-0.05036140895067608,0.02278254214435346,0.01345635530163567
0.21315673828125,-0.143701171875,1.2315230961298376,-0.04996171522884531,0.02438131703167651,0.018385911204215073
0.20357666015625,-0.143701171875,1.18525593008739,-0.05156049011616837,0.02851148549059439,0.01532159267017923
0.21315673828125,-0.15088623046875002,1.163483146067417,-0.049162327785183785,0.02531393571594829,0.014122511504686942
0.1676513671875,-0.17244140625,1.2260799001248444,-0.049695252747624805,0.02344869834740473,0.015454823910789482
0.1676513671875,-0.16046630859375,1.122659176029961,-0.05036140895067608,0.023981623309845747,0.012523736617363892
0.22034179687500002,-0.18920654296875,1.163483146067417,-0.05049464019128632,0.027445635565712355,0.015854517632620243
0.16525634765625,-0.15328125,1.128102372034956,-0.04783001537908124,0.02784532928754312,0.016120980113840753
0.17962646484375,-0.12214599609375,1.1743695380774035,-0.05062787143189658,0.026379785640830326,0.015454823910789482
0.23231689453125,-0.14130615234375002,1.2396878901373292,-0.04569831552931718,0.027578866806322613,0.017719755001163802
0.19878662109375,-0.17483642578125,1.2070287141073646,-0.04956202150701454,0.02584686067838931,0.015188361429568973
0.17483642578125,-0.1772314453125,1.2233583021223478,-0.04942879026640429,0.021583460978861175,0.015588055151399738
0.162861328125,-0.1197509765625,1.100886392009988,-0.05022817771006582,0.01958499236970736,0.016120980113840753
0.12693603515625002,-0.18202148437500001,1.158039950062422,-0.04996171522884531,0.018119448722994567,0.018252679963604822
0.21315673828125,-0.19399658203125,1.1172159800249695,-0.04942879026640429,0.018785604926045835,0.013989280264076687
0.1484912109375,-0.10298583984375001,1.1498751560549323,-0.049695252747624805,0.023848392069235495,0.017453292519943295
0.22752685546875,-0.1772314453125,1.2315230961298376,-0.05049464019128632,0.029310872934255914,0.015987748873230498
0.13651611328125002,-0.1484912109375,1.2097503121098612,-0.05129402763494785,0.035972434964768624,0.01572128639200999
0.1293310546875,-0.1293310546875,1.1172159800249695,-0.04876263406335302,0.037304747370871166,0.014655436467127957
0.18441650390625,-0.15328125,1.1879775280898883,-0.04676416545419921,0.04063552838612752,0.014921898948348465
0.1484912109375,-0.1389111328125,1.1825343320848933,-0.04996171522884531,0.03317457891195329,0.015588055151399738
0.10298583984375001,-0.15328125,1.348551810237204,-0.04689739669480946,0.02851148549059439,0.018119448722994567
0.17483642578125,-0.1676513671875,1.1988639200998765,-0.05076110267250683,0.015588055151399738,0.01505513018895872
0.18920654296875,-0.1484912109375,1.1961423220973781,-0.05022817771006582,0.004929555902579405,0.0127901990985844
0.15328125,-0.13651611328125002,1.119937578027466,-0.05156049011616837,0.0013323124061025418,0.012923430339194655
0.23231689453125,-0.13172607421875002,1.1607615480649187,-0.049695252747624805,0.005862174586851183,0.016520673835671518
0.21076171875000002,-0.1484912109375,1.1689263420724085,-0.05169372135677862,0.015454823910789482,0.015987748873230498
0.26584716796875,-0.1580712890625,1.1743695380774035,-0.05129402763494785,0.02571362943777905,0.01638744259506126
0.20836669921875,-0.14130615234375002,1.1362671660424475,-0.048895865303963275,0.041301684589178794,0.014921898948348465
0.1772314453125,-0.16525634765625,1.1716479400749051,-0.049828483988235056,0.0514272588755581,0.01705359879811253
0.22513183593750002,-0.1484912109375,1.1798127340823967,-0.0514272588755581,0.05595712105630675,0.015454823910789482
0.124541015625,-0.18202148437500001,1.1825343320848933,-0.04849617158213252,0.05435834616898369,0.015987748873230498
0.11017089843750001,-0.13172607421875002,1.2015855181023731,-0.04809647786030175,0.04116845334856853,0.013856049023466434
0.17004638671875,-0.15567626953125,1.08183520599251,-0.049695252747624805,0.021450229738250916,0.018119448722994567
0.10298583984375001,-0.19399658203125,1.158039950062422,-0.05129402763494785,0.010924961730040842,0.018252679963604822
0.13651611328125002,-0.13651611328125002,1.2614606741573038,-0.046231240491758196,0.0031975497746461,0.014255742745297196
0.18441650390625,-0.12693603515625002,1.1498751560549323,-0.05049464019128632,-0.002398162330984575,0.016254211354451008
0.18920654296875,-0.15328125,1.152596754057429,-0.05156049011616837,0.0009326186842717791,0.015854517632620243
0.239501953125,-0.1293310546875,1.0274032459425726,-0.05062787143189658,0.015854517632620243,0.013722817782856177
0.22513183593750002,-0.21315673828125,1.1063295880149813,-0.05089433391311709,0.02278254214435346,0.017586523760553547
0.18202148437500001,-0.15088623046875002,1.1607615480649187,-0.04862940282274277,0.03317457891195329,0.012656967857974145
0.18681152343750002,-0.1484912109375,1.2478526841448172,-0.048229709100912004,0.037304747370871166,0.01505513018895872
0.18441650390625,-0.1580712890625,1.2560174781523088,-0.051960183837999115,0.03970290970185574,0.01212404289553313
0.18202148437500001,-0.14609619140625002,1.2532958801498122,-0.049295559025794036,0.040502297145517265,0.016787136316892024
0.162861328125,-0.13412109375,1.0682272159800252,-0.04876263406335302,0.03783767233331218,0.01532159267017923
0.17483642578125,-0.1580712890625,1.2097503121098612,-0.05089433391311709,0.031042879062189218,0.017186830038722786
0.20118164062500002,-0.124541015625,1.1770911360799001,-0.0514272588755581,0.026513016881440574,0.012257274136143383
0.162861328125,-0.143701171875,1.100886392009988,-0.04729709041664023,0.020650842294589397,0.01572128639200999
0.16525634765625,-0.18920654296875,1.1090511860174779,-0.049695252747624805,0.0255803981971688,0.016787136316892024
0.1484912109375,-0.1772314453125,1.2179151061173528,-0.05076110267250683,0.027045941843881597,0.01572128639200999
0.17483642578125,-0.09580078125000001,1.1117727840199763,-0.04809647786030175,0.029310872934255914,0.013856049023466434
0.14130615234375002,-0.1197509765625,1.1662047440699137,-0.04636447173236845,0.02771209804693287,0.014921898948348465
0.17004638671875,-0.229921875,1.1825343320848933,-0.048362940341522255,0.02571362943777905,0.013589586542245922
0.17483642578125,-0.17004638671875,1.1689263420724085,-0.04862940282274277,0.01891883616665609,0.013323124061025416
0.16046630859375,-0.17962646484375,1.2124719101123596,-0.05049464019128632,0.01985145485092787,0.016520673835671518
0.19399658203125,-0.1484912109375,1.158039950062422,-0.05022817771006582,0.011324655451871604,0.013722817782856177
0.20118164062500002,-0.1772314453125,1.152596754057429,-0.049295559025794036,0.01345635530163567,0.01572128639200999
0.2347119140625,-0.1580712890625,1.2070287141073646,-0.05062787143189658,0.01891883616665609,0.016120980113840753
0.229921875,-0.17483642578125,1.2043071161048697,-0.05235987755982988,0.023981623309845747,0.01532159267017923
0.20357666015625,-0.18920654296875,1.1689263420724085,-0.04503215932626591,0.03290811643073278,0.01732006127933304
0.17962646484375,-0.17004638671875,1.1172159800249695,-0.05036140895067608,0.03916998473941472,0.01692036755750228
0.23710693359375,-0.18441650390625,1.0981647940074897,-0.05089433391311709,0.04663093421358896,0.018119448722994567
0.17244140625,-0.1197509765625,1.2179151061173528,-0.049295559025794036,0.04743032165725048,0.01891883616665609
0.162861328125,-0.17962646484375,1.1934207240948815,-0.0514272588755581,0.04316692195772235,0.016254211354451008
0.10059082031250001,-0.1772314453125,1.1607615480649187,-0.05209341507860938,0.036505359927209644,0.014655436467127957
0.10298583984375001,-0.17244140625,1.266903870162297,-0.05209341507860938,0.02331546710679448,0.014921898948348465
0.12693603515625002,-0.1293310546875,1.3131710362047446,-0.04876263406335302,0.010924961730040842,0.017586523760553547
0.13172607421875002,-0.11735595703125,1.1798127340823967,-0.051960183837999115,0.0037304747370871163,0.012923430339194655
0.18681152343750002,-0.11735595703125,1.1770911360799001,-0.04876263406335302,-0.0011990811654922875,0.01212404289553313
0.22513183593750002,-0.15088623046875002,1.2369662921348326,-0.04703062793541971,0.005196018383799912,0.01532159267017923
0.22273681640625,-0.162861328125,1.0655056179775286,-0.04902909654457353,0.011591117933092112,0.015854517632620243
0.162861328125,-0.11017089843750001,1.1553183520599255,-0.04876263406335302,0.029310872934255914,0.015854517632620243
0.27063720703125,-0.1149609375,1.1172159800249695,-0.04902909654457353,0.03770444109270193,0.012257274136143383
0.18681152343750002,-0.14609619140625002,1.062784019975032,-0.05222664631921963,0.044099540641994124,0.017186830038722786
0.20597167968750002,-0.18441650390625,1.2750686641697886,-0.05022817771006582,0.048362940341522255,0.015188361429568973
0.18920654296875,-0.11735595703125,1.2532958801498122,-0.050094946469455566,0.04503215932626591,0.01505513018895872
0.12693603515625002,-0.13412109375,1.1662047440699137,-0.04996171522884531,0.03477335379927634,0.01505513018895872
0.1580712890625,-0.15567626953125,1.2070287141073646,-0.05076110267250683,0.02371516082862524,0.014788667707738212
0.17244140625,-0.0814306640625,1.2369662921348326,-0.04902909654457353,0.01345635530163567,0.01572128639200999
0.18202148437500001,-0.13651611328125002,1.1444319600499373,-0.05062787143189658,0.009059724361497283,0.017586523760553547
0.21555175781250002,-0.1772314453125,1.138988764044944,-0.04942879026640429,0.006528330789902454,0.014122511504686942
0.24908203125,-0.15328125,1.2369662921348326,-0.05209341507860938,0.010791730489430587,0.015854517632620243
0.18441650390625,-0.15088623046875002,1.119937578027466,-0.050094946469455566,0.021983154700691936,0.014921898948348465
0.20357666015625,-0.16525634765625,1.1770911360799001,-0.04849617158213252,0.029577335415476424,0.013722817782856177
0.20836669921875,-0.11735595703125,1.2043071161048697,-0.05062787143189658,0.0369050536490404,0.014522205226517704
0.15567626953125,-0.17244140625,1.1934207240948815,-0.05049464019128632,0.037304747370871166,0.017186830038722786
0.16525634765625,-0.21794677734375,1.1934207240948815,-0.04769678413847099,0.036372128686599385,0.012923430339194655
0.19160156250000002,-0.17962646484375,1.2179151061173528,-0.048362940341522255,0.028111791768763626,0.015588055151399738
0.1484912109375,-0.12693603515625002,1.147153558052434,-0.047963246619691494,0.021716692219471426,0.014255742745297196
0.21794677734375,-0.17962646484375,1.152596754057429,-0.049695252747624805,0.0191852986478766,0.017986217482384312
0.18920654296875,-0.19399658203125,1.0137952559300878,-0.05209341507860938,0.018652373685435583,0.013323124061025416
0.19639160156250002,-0.1149609375,1.2233583021223478,-0.05262634004105039,0.02438131703167651,0.019984686091538122
0.24189697265625001,-0.14609619140625002,1.1417103620474407,-0.05395865244715294,0.02771209804693287,0.014122511504686942
0.18202148437500001,-0.18441650390625,1.1172159800249695,-0.04996171522884531,0.03743797861148142,0.011724349173702365
0.14609619140625002,-0.13651611328125002,1.1988639200998765,-0.047963246619691494,0.041301684589178794,0.01505513018895872
0.10298583984375001,-0.16046630859375,1.163483146067417,-0.05382542120654268,0.03943644722063524,0.017852986241774057
0.17483642578125,-0.162861328125,1.18525593008739,-0.04716385917602997,0.024914241994117528,0.018519142444825328
0.11017089843750001,-0.1149609375,1.2913982521847682,-0.04783001537908124,0.009059724361497283,0.013989280264076687
0.20597167968750002,-0.162861328125,1.1716479400749051,-0.05036140895067608,-0.009192955602107537,0.014122511504686942
0.18920654296875,-0.14609619140625002,1.0546192259675404,-0.04809647786030175,-0.021849923460081685,0.01572128639200999
0.2682421875,-0.1389111328125,1.1553183520599255,-0.04703062793541971,-0.019052067407266345,0.013989280264076687
0.29458740234375,-0.18202148437500001,1.0491760299625454,-0.05062787143189658,0.000799387443661525,0.015454823910789482
0.29458740234375,-0.19160156250000002,1.0001872659176048,-0.04769678413847099,0.029310872934255914,0.016520673835671518
0.29458740234375,-0.11256591796875001,1.0927215980024965,-0.04956202150701454,0.06861408891428089,0.01212404289553313
0.25147705078125,-0.08861572265625,1.119937578027466,-0.05156049011616837,0.09899081177341884,0.016254211354451008
0.18920654296875,-0.09819580078125001,1.1689263420724085,-0.05036140895067608,0.11697702925580315,0.01971822361031762
0.023950195312500002,-0.21076171875000002,1.1798127340823967,-0.05062787143189658,0.11724349173702366,0.017186830038722786
0.0143701171875,-0.12693603515625002,1.2151935081148562,-0.04956202150701454,0.09033078113375233,0.014255742745297196
-0.02155517578125,-0.1484912109375,1.4274781523096127,-0.04902909654457353,0.047963246619691494,0.014921898948348465
-0.00718505859375,-0.17962646484375,1.3158926342072412,-0.04942879026640429,-0.008526799399056265,0.013722817782856177
0.052690429687500005,-0.11017089843750001,1.2342446941323342,-0.049828483988235056,-0.06301837680865022,0.015854517632620243
0.21555175781250002,-0.12214599609375,1.1308239700374525,-0.051960183837999115,-0.09259571222412663,0.012523736617363892
0.25626708984375,-0.20836669921875,1.119937578027466,-0.05036140895067608,-0.09113016857741384,0.017719755001163802
0.38320312500000003,-0.08861572265625,1.1417103620474407,-0.05022817771006582,-0.06515007665841428,0.016520673835671518
0.36404296875000003,-0.17962646484375,1.0600624219725336,-0.048362940341522255,-0.025447166956558544,0.011591117933092112
0.35685791015625,-0.17004638671875,1.1662047440699137,-0.05022817771006582,0.020251148572758632,0.013189892820415163
0.30416748046875003,-0.0718505859375,1.152596754057429,-0.049162327785183785,0.07447626350113207,0.014921898948348465
0.38320312500000003,-0.15328125,1.0491760299625454,-0.049828483988235056,0.11577794809031086,0.01345635530163567
0.15328125,-0.12693603515625002,1.128102372034956,-0.05089433391311709,0.1313660032417106,0.016120980113840753
0.1484912109375,-0.14609619140625002,1.2451310861423224,-0.05089433391311709,0.1237718225269261,0.01638744259506126
0.023950195312500002,-0.17004638671875,1.2015855181023731,-0.0511607963943376,0.09725880564548554,0.01732006127933304
0.00239501953125,-0.162861328125,1.2505742821473174,-0.049162327785183785,0.058088820906070815,0.015188361429568973
0.05987548828125,-0.1580712890625,1.2043071161048697,-0.05089433391311709,0.014655436467127957,0.01692036755750228
0.10298583984375001,-0.17004638671875,1.1172159800249695,-0.04996171522884531,-0.014921898948348465,0.019052067407266345
0.076640625,-0.13172607421875002,1.1036079900124847,-0.04942879026640429,-0.036505359927209644,0.014788667707738212
0.24189697265625001,-0.12214599609375,1.158039950062422,-0.049695252747624805,-0.03450689131805583,0.012923430339194655
0.17244140625,-0.14609619140625002,1.1172159800249695,-0.0514272588755581,-0.0305099540997482,0.019984686091538122
0.239501953125,-0.14130615234375002,1.08183520599251,-0.050094946469455566,-0.01505513018895872,0.016787136316892024
0.29937744140625,-0.10538085937500001,1.0763920099875168,-0.05129402763494785,0.006128637068071692,0.01505513018895872
0.32572265625,-0.1580712890625,1.08183520599251,-0.049162327785183785,0.02371516082862524,0.018252679963604822
0.24189697265625001,-0.18920654296875,1.1798127340823967,-0.04676416545419921,0.04063552838612752,0.016520673835671518
0.19639160156250002,-0.14609619140625002,1.2478526841448172,-0.05129402763494785,0.045165390566876164,0.014122511504686942
0.18681152343750002,-0.0814306640625,1.0219600499375776,-0.046231240491758196,0.05688973974057853,0.015588055151399738
0.21076171875000002,-0.19160156250000002,1.08183520599251,-0.05036140895067608,0.05688973974057853,0.018119448722994567
0.229921875,-0.15567626953125,1.2587390761548054,-0.048362940341522255,0.053558958725322174,0.011591117933092112
0.20597167968750002,-0.19399658203125,1.1934207240948815,-0.05222664631921963,0.04942879026640429,0.014921898948348465
0.21555175781250002,-0.16046630859375,1.1607615480649187,-0.04942879026640429,0.04263399699528134,0.014788667707738212
0.10059082031250001,-0.1149609375,1.1308239700374525,-0.048229709100912004,0.03490658503988659,0.01705359879811253
0.17004638671875,-0.06466552734375,1.2151935081148562,-0.05062787143189658,0.03130934154340973,0.013856049023466434
0.11256591796875001,-0.14609619140625002,1.1444319600499373,-0.049695252747624805,0.01971822361031762,0.012257274136143383
0.07424560546875,-0.24908203125,1.138988764044944,-0.048895865303963275,0.005462480865020421,0.015454823910789482
0.1580712890625,-0.19399658203125,1.2015855181023731,-0.048362940341522255,-0.007061255752343471,0.015987748873230498
0.15088623046875002,-0.143701171875,1.0791136079900134,-0.049162327785183785,-0.011990811654922873,0.017852986241774057
0.20357666015625,-0.1676513671875,1.133545568039949,-0.05062787143189658,-0.011457886692481857,0.01532159267017923
0.27303222656250004,-0.18681152343750002,1.1063295880149813,-0.04942879026640429,-0.0031975497746461,0.016254211354451008
0.24668701171875002,-0.13412109375,1.133545568039949,-0.049295559025794036,0.009992343045769061,0.01732006127933304
0.25387207031250003,-0.18441650390625,1.138988764044944,-0.04996171522884531,0.029577335415476424,0.01665390507628177
0.25626708984375,-0.16046630859375,1.0899999999999999,-0.0514272588755581,0.05395865244715294,0.01505513018895872
0.239501953125,-0.1389111328125,1.1934207240948815,-0.05089433391311709,0.06768147023000912,0.016787136316892024
0.1580712890625,-0.124541015625,1.1825343320848933,-0.049828483988235056,0.07554211342601411,0.013189892820415163
0.10298583984375001,-0.10298583984375001,1.0927215980024965,-0.049162327785183785,0.06808116395183987,0.01638744259506126
0.08861572265625,-0.17244140625,1.1879775280898883,-0.05062787143189658,0.05169372135677862,0.016520673835671518
0.10298583984375001,-0.18681152343750002,1.158039950062422,-0.05102756515372735,0.026513016881440574,0.013189892820415163
0.11735595703125,-0.22034179687500002,1.163483146067417,-0.05102756515372735,0.0010658499248820332,0.014122511504686942
0.1580712890625,-0.16046630859375,1.163483146067417,-0.04876263406335302,-0.017852986241774057,0.01345635530163567
0.26584716796875,-0.1484912109375,1.152596754057429,-0.05182695259738886,-0.02584686067838931,0.014788667707738212
0.20118164062500002,-0.17962646484375,1.2206367041198494,-0.049162327785183785,-0.013856049023466434,0.013989280264076687
0.28021728515625,-0.10298583984375001,1.1144943820224729,-0.05222664631921963,-0.004130168458917879,0.013856049023466434
0.25626708984375,-0.1389111328125,1.0328464419475658,-0.05036140895067608,0.016520673835671518,0.01572128639200999
0.29937744140625,-0.11735595703125,1.2151935081148562,-0.053558958725322174,0.04010260342368651,0.01572128639200999
0.27063720703125,-0.15328125,1.1308239700374525,-0.04956202150701454,0.05742266470301954,0.013589586542245922
0.20118164062500002,-0.162861328125,1.1879775280898883,-0.05209341507860938,0.06728177650817835,0.01732006127933304
0.124541015625,-0.18202148437500001,1.1988639200998765,-0.05076110267250683,0.06288514556803997,0.014122511504686942
0.09101074218750001,-0.15567626953125,1.057340823970037,-0.048229709100912004,0.05649004601874777,0.013323124061025416
0.14130615234375002,-0.18920654296875,1.1553183520599255,-0.050094946469455566,0.042500765754671085,0.0127901990985844
0.10298583984375001,-0.162861328125,1.18525593008739,-0.04956202150701454,0.02691271060327134,0.014122511504686942
0.086220703125,-0.14130615234375002,1.1498751560549323,-0.05249310880044014,0.016520673835671518,0.016120980113840753
0.10298583984375001,-0.1149609375,1.1498751560549323,-0.0511607963943376,0.004529862180748642,0.012390505376753635
0.18202148437500001,-0.14130615234375002,1.1961423220973781,-0.05089433391311709,-0.0021316998497640663,0.012923430339194655
0.18441650390625,-0.19878662109375,1.100886392009988,-0.05022817771006582,-0.005196018383799912,0.01665390507628177
0.24668701171875002,-0.10538085937500001,1.0655056179775286,-0.05022817771006582,0.0038637059776973704,0.012257274136143383
0.21315673828125,-0.162861328125,1.0464544319600488,-0.049162327785183785,0.01025880552698957,0.017719755001163802
0.23710693359375,-0.23710693359375,1.1961423220973781,-0.05182695259738886,0.01945176112909711,0.013056661579804908
0.23710693359375,-0.14609619140625002,1.0927215980024965,-0.05049464019128632,0.02984379789669693,0.013056661579804908
0.22034179687500002,-0.14609619140625002,1.0872784019975033,-0.05235987755982988,0.040901990867348026,0.01532159267017923
0.258662109375,-0.09819580078125001,1.1063295880149813,-0.04996171522884531,0.04729709041664023,0.014255742745297196
0.19878662109375,-0.11735595703125,1.163483146067417,-0.05076110267250683,0.04583154676992743,0.01732006127933304
0.19160156250000002,-0.1389111328125,1.128102372034956,-0.05249310880044014,0.044232771882604376,0.015188361429568973
0.12693603515625002,-0.17244140625,1.163483146067417,-0.05156049011616837,0.03823736605514295,0.014921898948348465
0.08861572265625,-0.19639160156250002,1.1362671660424475,-0.0514272588755581,0.032508422708902016,0.014122511504686942
0.15567626953125,-0.1580712890625,1.0872784019975033,-0.05022817771006582,0.023049004625573973,0.013189892820415163
0.15088623046875002,-0.11017089843750001,1.1825343320848933,-0.05156049011616837,0.014122511504686942,0.016520673835671518
0.1484912109375,-0.1293310546875,1.1798127340823967,-0.0511607963943376,0.0029310872934255913,0.01638744259506126
0.1484912109375,-0.1580712890625,1.190699126092385,-0.05382542120654268,-0.0037304747370871163,0.01732006127933304
0.24908203125,-0.1580712890625,1.1117727840199763,-0.05275957128166065,-0.010924961730040842,0.014255742745297196
0.24189697265625001,-0.11735595703125,1.1988639200998765,-0.05235987755982988,0.0011990811654922875,0.01438897398590745
0.24189697265625001,-0.1484912109375,1.125380774032461,-0.04809647786030175,0.016254211354451008,0.013856049023466434
0.21076171875000002,-0.1293310546875,1.119937578027466,-0.05022817771006582,0.040901990867348026,0.017852986241774057
0.26584716796875,-0.1149609375,1.190699126092385,-0.04729709041664023,0.06608269534268607,0.01505513018895872
0.15088623046875002,-0.18681152343750002,1.122659176029961,-0.05049464019128632,0.08047166932859351,0.01638744259506126
0.1389111328125,-0.143701171875,1.0845568039950049,-0.05076110267250683,0.08460183778751139,0.011457886692481857
0.124541015625,-0.12693603515625002,1.2478526841448172,-0.05049464019128632,0.07287748861380904,0.01665390507628177
0.0431103515625,-0.11017089843750001,1.2070287141073646,-0.04996171522884531,0.046098009251147945,0.016520673835671518
0.09101074218750001,-0.1197509765625,1.3975405742821483,-0.05169372135677862,0.01025880552698957,0.017186830038722786
0.0718505859375,-0.14609619140625002,1.2124719101123596,-0.05302603376288115,-0.02278254214435346,0.014522205226517704
0.11735595703125,-0.13651611328125002,1.1988639200998765,-0.049295559025794036,-0.04663093421358896,0.014788667707738212
0.2682421875,-0.1389111328125,1.1716479400749051,-0.05076110267250683,-0.053692189965932426,0.016120980113840753
0.30416748046875003,-0.15328125,1.08183520599251,-0.05209341507860938,-0.040502297145517265,0.013856049023466434
0.27542724609375,-0.13412109375,1.057340823970037,-0.05156049011616837,-0.009459418083328045,0.013323124061025416
0.3688330078125,-0.13412109375,1.100886392009988,-0.04769678413847099,0.02984379789669693,0.01438897398590745
0.26105712890625,-0.124541015625,1.0382896379525608,-0.05076110267250683,0.06448392045536301,0.01732006127933304
0.30177246093750004,-0.1580712890625,1.100886392009988,-0.049828483988235056,0.09392802463022919,0.014655436467127957
0.1676513671875,-0.1484912109375,1.128102372034956,-0.04876263406335302,0.10818376737552639,0.014255742745297196
0.05748046875,-0.20118164062500002,1.138988764044944,-0.05249310880044014,0.09899081177341884,0.01692036755750228
0.06945556640625,-0.15328125,1.163483146067417,-0.048895865303963275,0.06954670759855268,0.01732006127933304
0.06466552734375,-0.16046630859375,1.3022846441947564,-0.049295559025794036,0.03970290970185574,0.013989280264076687
0.07903564453125,-0.18441650390625,1.1988639200998765,-0.05089433391311709,0.0031975497746461,0.01705359879811253
0.086220703125,-0.1484912109375,1.1144943820224729,-0.050094946469455566,-0.024914241994117528,0.013323124061025416
0.20597167968750002,-0.15088623046875002,1.1063295880149813,-0.05089433391311709,-0.03810413481453269,0.01438897398590745
0.21076171875000002,-0.11017089843750001,1.0872784019975033,-0.05129402763494785,-0.03557274124293786,0.01732006127933304
0.30177246093750004,-0.09580078125000001,1.1879775280898883,-0.05049464019128632,-0.02051761105397914,0.01532159267017923
0.24668701171875002,-0.1389111328125,1.0165168539325844,-0.048362940341522255,0.002797856052815337,0.015854517632620243
0.19878662109375,-0.1293310546875,1.08183520599251,-0.04756355289786074,0.02571362943777905,0.012923430339194655
0.25626708984375,-0.12214599609375,1.1498751560549323,-0.05156049011616837,0.04703062793541971,0.01505513018895872
0.25387207031250003,-0.16525634765625,1.0927215980024965,-0.04956202150701454,0.06421745797414251,0.012390505376753635
0.19639160156250002,-0.18441650390625,1.1498751560549323,-0.049828483988235056,0.07074578876404496,0.014655436467127957
0.1580712890625,-0.17004638671875,1.2750686641697886,-0.04756355289786074,0.06688208278634758,0.01532159267017923
0.10298583984375001,-0.16046630859375,1.163483146067417,-0.04996171522884531,0.057156202221799034,0.012523736617363892
0.11735595703125,-0.17004638671875,1.122659176029961,-0.050094946469455566,0.04463246560443514,0.01705359879811253
0.07424560546875,-0.11735595703125,1.2532958801498122,-0.0511607963943376,0.023049004625573973,0.01665390507628177
0.13651611328125002,-0.09580078125000001,1.08183520599251,-0.048895865303963275,0.006261868308681946,0.017719755001163802
0.15088623046875002,-0.1484912109375,1.1553183520599255,-0.050094946469455566,-0.008926493120887028,0.01638744259506126
0.17483642578125,-0.1580712890625,1.2614606741573038,-0.04956202150701454,-0.009725880564548555,0.01732006127933304
0.23710693359375,-0.1149609375,1.2070287141073646,-0.048229709100912004,-0.01025880552698957,0.01692036755750228
0.26584716796875,-0.12214599609375,1.1498751560549323,-0.048362940341522255,0.0009326186842717791,0.017986217482384312
0.22752685546875,-0.12214599609375,1.0165168539325844,-0.04942879026640429,0.009725880564548555,0.015188361429568973
0.26105712890625,-0.14609619140625002,1.2043071161048697,-0.05062787143189658,0.027312404325102103,0.01438897398590745
0.23710693359375,-0.13172607421875002,1.1798127340823967,-0.04756355289786074,0.041301684589178794,0.01638744259506126
0.229921875,-0.16525634765625,1.122659176029961,-0.05289280252227091,0.05062787143189658,0.018252679963604822
0.16046630859375,-0.16046630859375,1.2451310861423224,-0.04783001537908124,0.057156202221799034,0.01638744259506126
0.13172607421875002,-0.14130615234375002,1.2369662921348326,-0.04743032165725048,0.05209341507860938,0.014921898948348465
0.15328125,-0.05748046875,1.2097503121098612,-0.04756355289786074,0.046231240491758196,0.01705359879811253
0.0718505859375,-0.17004638671875,1.1689263420724085,-0.048895865303963275,0.04116845334856853,0.013722817782856177
0.15088623046875002,-0.19160156250000002,1.2070287141073646,-0.05435834616898369,0.031042879062189218,0.016120980113840753
0.15567626953125,-0.1484912109375,1.122659176029961,-0.05036140895067608,0.021983154700691936,0.014788667707738212
0.19160156250000002,-0.12693603515625002,1.128102372034956,-0.05089433391311709,0.013056661579804908,0.01572128639200999
0.09340576171875001,-0.21315673828125,0.8913233458177281,-0.04996171522884531,0.008260336917835759,0.016787136316892024
0.17483642578125,-0.12214599609375,1.0763920099875168,-0.048895865303963275,0.0034640122558666085,0.016787136316892024
0.18681152343750002,-0.21076171875000002,1.1362671660424475,-0.049162327785183785,0.0017320061279333043,0.01572128639200999
0.229921875,-0.1580712890625,1.163483146067417,-0.0514272588755581,0.0057289433462409285,0.014921898948348465
0.2442919921875,-0.162861328125,1.0763920099875168,-0.0511607963943376,0.01505513018895872,0.01638744259506126
0.27303222656250004,-0.14609619140625002,1.0763920099875168,-0.04956202150701454,0.027445635565712355,0.012257274136143383
0.24668701171875002,-0.15567626953125,1.122659176029961,-0.05235987755982988,0.04383307816077362,0.016787136316892024
0.21076171875000002,-0.1580712890625,1.0546192259675404,-0.049695252747624805,0.05289280252227091,0.015454823910789482
0.1772314453125,-0.17004638671875,1.18525593008739,-0.050094946469455566,0.06115313944010666,0.017453292519943295
0.08861572265625,-0.15328125,1.138988764044944,-0.04942879026640429,0.05022817771006582,0.014122511504686942
0.0814306640625,-0.1149609375,1.2070287141073646,-0.05076110267250683,0.0337075038743943,0.015588055151399738
0.1389111328125,-0.16046630859375,1.0927215980024965,-0.05089433391311709,0.016120980113840753,0.015588055151399738
0.11735595703125,-0.16046630859375,1.1988639200998765,-0.05049464019128632,-0.0006661562030512709,0.017586523760553547
0.22513183593750002,-0.1293310546875,1.1417103620474407,-0.0511607963943376,-0.01665390507628177,0.014255742745297196
0.258662109375,-0.14609619140625002,1.1063295880149813,-0.04956202150701454,-0.015454823910789482,0.016254211354451008
0.24189697265625001,-0.19399658203125,1.1716479400749051,-0.05209341507860938,-0.0073277182335639785,0.01692036755750228
0.27303222656250004,-0.17962646484375,1.1172159800249695,-0.05022817771006582,0.0127901990985844,0.01638744259506126
0.258662109375,-0.17004638671875,1.147153558052434,-0.049695252747624805,0.03956967846124548,0.013589586542245922
0.229921875,-0.124541015625,1.147153558052434,-0.05156049011616837,0.06315160804926047,0.01505513018895872
0.20357666015625,-0.20357666015625,1.1444319600499373,-0.05036140895067608,0.0750091884635731,0.01345635530163567
0.076640625,-0.1484912109375,1.1144943820224729,-0.050094946469455566,0.07953905064432173,0.015987748873230498
0.076640625,-0.1484912109375,1.190699126092385,-0.05102756515372735,0.06448392045536301,0.014255742745297196
-0.01676513671875,-0.11017089843750001,1.1144943820224729,-0.047963246619691494,0.03877029101758396,0.015588055151399738
0.0431103515625,-0.17004638671875,1.2015855181023731,-0.04862940282274277,0.011324655451871604,0.012390505376753635
0.14130615234375002,-0.1676513671875,1.1498751560549323,-0.05249310880044014,-0.014122511504686942,0.017719755001163802
0.14609619140625002,-0.13651611328125002,1.057340823970037,-0.05129402763494785,-0.0305099540997482,0.01638744259506126
0.1580712890625,-0.12214599609375,1.1308239700374525,-0.04996171522884531,-0.032375191468291764,0.015454823910789482
0.22273681640625,-0.18681152343750002,1.0736704119850184,-0.05076110267250683,-0.022516079663132956,0.015454823910789482
0.34727783203125,-0.1676513671875,1.1090511860174779,-0.048229709100912004,0.006261868308681946,0.01505513018895872
0.37362304687500003,-0.1149609375,1.1716479400749051,-0.04942879026640429,0.03490658503988659,0.013989280264076687
0.28740234375,-0.17483642578125,1.0981647940074897,-0.049828483988235056,0.05862174586851183,0.014522205226517704
0.17483642578125,-0.143701171875,1.095443196004993,-0.049695252747624805,0.07607503838845513,0.0127901990985844
0.17483642578125,-0.14609619140625002,1.147153558052434,-0.05022817771006582,0.07873966320066021,0.01638744259506126
0.08382568359375,-0.19639160156250002,1.158039950062422,-0.047963246619691494,0.07034609504221419,0.013589586542245922
0.19160156250000002,-0.16046630859375,1.2805118601747818,-0.050094946469455566,0.05022817771006582,0.013323124061025416
0.13651611328125002,-0.17004638671875,1.2124719101123596,-0.04956202150701454,0.026113323159609816,0.01891883616665609
0.1484912109375,-0.22273681640625,1.2043071161048697,-0.05062787143189658,0.0035972434964768626,0.01692036755750228
0.1772314453125,-0.1293310546875,1.138988764044944,-0.05022817771006582,-0.013189892820415163,0.017186830038722786
0.18202148437500001,-0.1293310546875,1.019238451935081,-0.05022817771006582,-0.007194486992953725,0.013189892820415163
0.21555175781250002,-0.162861328125,1.0791136079900134,-0.051960183837999115,-0.0002664624812205083,0.014255742745297196
0.17483642578125,-0.12693603515625002,1.1798127340823967,-0.048362940341522255,0.012923430339194655,0.014122511504686942
0.2442919921875,-0.18920654296875,1.1063295880149813,-0.049828483988235056,0.027578866806322613,0.01185758041431262
0.21315673828125,-0.16046630859375,1.1444319600499373,-0.049162327785183785,0.04116845334856853,0.015588055151399738
0.17244140625,-0.1389111328125,1.1662047440699137,-0.05089433391311709,0.04503215932626591,0.016120980113840753
0.18681152343750002,-0.18202148437500001,1.158039950062422,-0.04876263406335302,0.041301684589178794,0.01692036755750228
0.19399658203125,-0.1580712890625,1.158039950062422,-0.049828483988235056,0.031176110302799476,0.013189892820415163
0.17962646484375,-0.16046630859375,1.3022846441947564,-0.05062787143189658,0.02078407353519965,0.01665390507628177
0.143701171875,-0.1389111328125,1.1961423220973781,-0.05102756515372735,0.011191424211261349,0.01532159267017923
0.22513183593750002,-0.1484912109375,1.0682272159800252,-0.04902909654457353,0.007993874436615249,0.014921898948348465
0.28261230468750004,-0.10777587890625001,1.119937578027466,-0.05129402763494785,0.01572128639200999,0.015454823910789482
0.24908203125,-0.12693603515625002,1.0355680399500624,-0.05089433391311709,0.027179173084491845,0.0191852986478766
0.239501953125,-0.20357666015625,1.1879775280898883,-0.05182695259738886,0.03943644722063524,0.014655436467127957
0.16046630859375,-0.162861328125,1.1798127340823967,-0.053292496244101664,0.05049464019128632,0.015454823910789482
0.1580712890625,-0.1389111328125,1.1036079900124847,-0.05156049011616837,0.05702297098118878,0.014788667707738212
0.15088623046875002,-0.076640625,1.095443196004993,-0.05089433391311709,0.05275957128166065,0.017586523760553547
0.10059082031250001,-0.18681152343750002,1.2260799001248444,-0.049162327785183785,0.03890352225819422,0.014921898948348465
0.09819580078125001,-0.1484912109375,1.190699126092385,-0.04996171522884531,0.023848392069235495,0.018252679963604822
0.12693603515625002,-0.12693603515625002,1.138988764044944,-0.049828483988235056,0.002797856052815337,0.017186830038722786
0.19160156250000002,-0.1484912109375,1.2015855181023731,-0.048895865303963275,-0.008260336917835759,0.014122511504686942
0.24189697265625001,-0.14130615234375002,1.2260799001248444,-0.04876263406335302,-0.012390505376753635,0.013989280264076687
0.24908203125,-0.14609619140625002,1.0872784019975033,-0.05022817771006582,-0.0057289433462409285,0.015987748873230498
0.35685791015625,-0.16046630859375,1.1036079900124847,-0.049162327785183785,0.005062787143189658,0.01438897398590745
0.29937744140625,-0.19399658203125,1.0791136079900134,-0.048229709100912004,0.02438131703167651,0.01185758041431262
0.22752685546875,-0.086220703125,0.9865792759051182,-0.049695252747624805,0.04170137831100955,0.014921898948348465
0.229921875,-0.22034179687500002,1.158039950062422,-0.04996171522884531,0.053692189965932426,0.01505513018895872
0.19399658203125,-0.11735595703125,1.1308239700374525,-0.05235987755982988,0.05968759579339386,0.01665390507628177
0.13651611328125002,-0.14609619140625002,1.095443196004993,-0.04902909654457353,0.05782235842485031,0.018119448722994567
0.16525634765625,-0.13651611328125002,1.0791136079900134,-0.048362940341522255,0.044765696845045395,0.015588055151399738
0.15567626953125,-0.15567626953125,1.1417103620474407,-0.049295559025794036,0.02851148549059439,0.015854517632620243
0.11735595703125,-0.14609619140625002,1.1825343320848933,-0.049695252747624805,0.011724349173702365,0.016120980113840753
0.13172607421875002,-0.15328125,1.1417103620474407,-0.05089433391311709,0.002531393571594829,0.01532159267017923
0.16525634765625,-0.18920654296875,1.1662047440699137,-0.049828483988235056,0.0002664624812205083,0.014655436467127957
0.23231689453125,-0.19160156250000002,1.2260799001248444,-0.048229709100912004,-0.0009326186842717791,0.01891883616665609
0.24908203125,-0.13651611328125002,1.1036079900124847,-0.05102756515372735,0.008526799399056265,0.015188361429568973
0.27063720703125,-0.11017089843750001,1.1825343320848933,-0.05076110267250683,0.016787136316892024,0.01705359879811253
0.17962646484375,-0.19160156250000002,1.0845568039950049,-0.05062787143189658,0.026513016881440574,0.018785604926045835
0.20118164062500002,-0.15328125,1.1090511860174779,-0.04783001537908124,0.033041347671343035,0.018385911204215073
0.15328125,-0.17962646484375,1.1362671660424475,-0.051960183837999115,0.03903675349880447,0.01638744259506126
0.24189697265625001,-0.162861328125,1.095443196004993,-0.04996171522884531,0.036372128686599385,0.01732006127933304
0.20597167968750002,-0.1293310546875,1.0682272159800252,-0.04942879026640429,0.037171516130260915,0.014655436467127957
0.162861328125,-0.15328125,1.0682272159800252,-0.051960183837999115,0.036238897445989134,0.016120980113840753
0.1676513671875,-0.1484912109375,1.2070287141073646,-0.04956202150701454,0.03264165394951227,0.016520673835671518
0.13172607421875002,-0.14609619140625002,1.1662047440699137,-0.04756355289786074,0.02331546710679448,0.01505513018895872
0.1772314453125,-0.13412109375,1.1036079900124847,-0.04942879026640429,0.02331546710679448,0.015188361429568973
0.18441650390625,-0.17244140625,1.1988639200998765,-0.0514272588755581,0.02424808579106626,0.01505513018895872
0.162861328125,-0.14609619140625002,1.2043071161048697,-0.048895865303963275,0.022915773384963714,0.014655436467127957
0.15328125,-0.13412109375,1.1743695380774035,-0.048229709100912004,0.02571362943777905,0.018785604926045835
0.143701171875,-0.18202148437500001,1.1798127340823967,-0.04942879026640429,0.02971056665608668,0.01505513018895872
0.19399658203125,-0.09101074218750001,1.147153558052434,-0.05102756515372735,0.023848392069235495,0.01705359879811253
0.20357666015625,-0.19160156250000002,1.1770911360799001,-0.05289280252227091,0.023049004625573973,0.016520673835671518
0.19878662109375,-0.1676513671875,1.0845568039950049,-0.05036140895067608,0.018785604926045835,0.01345635530163567
0.17244140625,-0.13651611328125002,1.062784019975032,-0.04636447173236845,0.019052067407266345,0.017986217482384312
0.15088623046875002,-0.14609619140625002,1.2124719101123596,-0.05036140895067608,0.019984686091538122,0.015454823910789482
0.20357666015625,-0.1772314453125,1.1063295880149813,-0.048229709100912004,0.020384379813368887,0.01705359879811253
0.1676513671875,-0.14130615234375002,1.1770911360799001,-0.05156049011616837,0.022516079663132956,0.013722817782856177
0.17244140625,-0.18681152343750002,1.1172159800249695,-0.04769678413847099,0.0255803981971688,0.01572128639200999
0.20118164062500002,-0.12693603515625002,1.0872784019975033,-0.05209341507860938,0.03064318534035846,0.014122511504686942
0.18681152343750002,-0.18441650390625,1.138988764044944,-0.053159265003491406,0.03490658503988659,0.014655436467127957
0.18202148437500001,-0.17483642578125,1.122659176029961,-0.05156049011616837,0.04236753451406082,0.014255742745297196
0.17004638671875,-0.17962646484375,1.0655056179775286,-0.04809647786030175,0.041434915829789046,0.01732006127933304
0.23231689453125,-0.15328125,1.2233583021223478,-0.04862940282274277,0.040768759626737774,0.01345635530163567
0.13412109375,-0.13651611328125002,1.1689263420724085,-0.04956202150701454,0.030909647821578963,0.013856049023466434
0.14609619140625002,-0.18202148437500001,1.1662047440699137,-0.0511607963943376,0.023049004625573973,0.015188361429568973
0.17244140625,-0.15088623046875002,1.2070287141073646,-0.04956202150701454,0.01891883616665609,0.014122511504686942
0.1484912109375,-0.17004638671875,1.2070287141073646,-0.05302603376288115,0.01025880552698957,0.015854517632620243
0.2347119140625,-0.14130615234375002,1.1144943820224729,-0.04756355289786074,0.0095926493239383,0.01665390507628177
0.239501953125,-0.16046630859375,1.0899999999999999,-0.04876263406335302,0.011591117933092112,0.014921898948348465
0.21794677734375,-0.1676513671875,1.125380774032461,-0.05022817771006582,0.015588055151399738,0.015188361429568973
0.20357666015625,-0.10777587890625001,1.0872784019975033,-0.049295559025794036,0.027578866806322613,0.01438897398590745
0.20118164062500002,-0.14130615234375002,1.2206367041198494,-0.05049464019128632,0.036372128686599385,0.014522205226517704
0.24189697265625001,-0.13412109375,1.019238451935081,-0.04876263406335302,0.03783767233331218,0.017719755001163802
0.18441650390625,-0.19160156250000002,1.1689263420724085,-0.04902909654457353,0.03743797861148142,0.016254211354451008
0.20118164062500002,-0.1580712890625,1.0872784019975033,-0.05129402763494785,0.03410719759622506,0.015454823910789482
0.17244140625,-0.18441650390625,1.1798127340823967,-0.04809647786030175,0.032108728987071254,0.015454823910789482
0.1389111328125,-0.1484912109375,1.2015855181023731,-0.048895865303963275,0.02278254214435346,0.015588055151399738
0.23710693359375,-0.12693603515625002,1.2750686641697886,-0.05049464019128632,0.0127901990985844,0.013323124061025416
0.13172607421875002,-0.1484912109375,1.2097503121098612,-0.05156049011616837,0.015588055151399738,0.014522205226517704
0.17483642578125,-0.17004638671875,1.190699126092385,-0.05022817771006582,0.011191424211261349,0.013589586542245922
0.26345214843750003,-0.10059082031250001,1.0600624219725336,-0.04956202150701454,0.017453292519943295,0.015588055151399738
0.22034179687500002,-0.17962646484375,1.1961423220973781,-0.0511607963943376,0.024514548272286767,0.011990811654922873
0.2442919921875,-0.1676513671875,1.119937578027466,-0.049295559025794036,0.03130934154340973,0.012923430339194655
0.18681152343750002,-0.19160156250000002,1.152596754057429,-0.0464977029729787,0.03490658503988659,0.014921898948348465
0.229921875,-0.15567626953125,1.095443196004993,-0.0511607963943376,0.03810413481453269,0.01692036755750228
0.21076171875000002,-0.16046630859375,1.1662047440699137,-0.049695252747624805,0.03877029101758396,0.017186830038722786
0.1676513671875,-0.143701171875,1.147153558052434,-0.05036140895067608,0.03144257278401998,0.018652373685435583
0.15088623046875002,-0.13651611328125002,1.0872784019975033,-0.05022817771006582,0.031842266505850744,0.015188361429568973
0.143701171875,-0.18681152343750002,1.1770911360799001,-0.0514272588755581,0.028644716731204643,0.014122511504686942
0.15088623046875002,-0.1580712890625,1.18525593008739,-0.048229709100912004,0.026646248122050832,0.013323124061025416
0.18681152343750002,-0.143701171875,1.0464544319600488,-0.05102756515372735,0.02424808579106626,0.014921898948348465
0.14130615234375002,-0.07424560546875,1.1798127340823967,-0.05235987755982988,0.02118376725703041,0.015854517632620243
0.10059082031250001,-0.17244140625,1.0600624219725336,-0.04876263406335302,0.019052067407266345,0.0127901990985844
0.15567626953125,-0.086220703125,1.2043071161048697,-0.049162327785183785,0.015188361429568973,0.01705359879811253
0.22513183593750002,-0.17004638671875,1.0981647940074897,-0.04942879026640429,0.011191424211261349,0.013323124061025416
0.20357666015625,-0.12693603515625002,1.1308239700374525,-0.04956202150701454,0.010924961730040842,0.01572128639200999
0.277822265625,-0.18681152343750002,1.163483146067417,-0.05102756515372735,0.01025880552698957,0.015987748873230498
0.24668701171875002,-0.17244140625,1.0899999999999999,-0.04876263406335302,0.015854517632620243,0.013589586542245922
0.296982421875,-0.13651611328125002,1.0981647940074897,-0.049828483988235056,0.021716692219471426,0.013589586542245922
0.229921875,-0.20118164062500002,1.0981647940074897,-0.05102756515372735,0.03410719759622506,0.014522205226517704
0.20118164062500002,-0.11017089843750001,1.2206367041198494,-0.05036140895067608,0.03956967846124548,0.01572128639200999
0.19399658203125,-0.1484912109375,1.122659176029961,-0.05049464019128632,0.05262634004105039,0.013856049023466434
0.19878662109375,-0.16525634765625,1.1770911360799001,-0.05049464019128632,0.058888208349732345,0.01931852988848685
0.10059082031250001,-0.15328125,1.100886392009988,-0.05169372135677862,0.05089433391311709,0.01572128639200999
0.14130615234375002,-0.16046630859375,1.138988764044944,-0.049695252747624805,0.045298621807486415,0.013989280264076687
0.1293310546875,-0.12693603515625002,1.2206367041198494,-0.05076110267250683,0.028378254249984136,0.01665390507628177
0.12214599609375,-0.1580712890625,1.1988639200998765,-0.05129402763494785,0.015454823910789482,0.014522205226517704
0.15088623046875002,-0.1197509765625,1.2260799001248444,-0.04849617158213252,-0.0038637059776973704,0.013989280264076687
0.16046630859375,-0.16046630859375,1.1090511860174779,-0.05129402763494785,-0.008260336917835759,0.016254211354451008
0.19160156250000002,-0.1772314453125,1.1417103620474407,-0.049295559025794036,-0.009059724361497283,0.015987748873230498
0.21315673828125,-0.16046630859375,1.2532958801498122,-0.05129402763494785,-0.004263399699528133,0.015854517632620243
0.239501953125,-0.1293310546875,1.190699126092385,-0.05022817771006582,0.005196018383799912,0.015588055151399738
0.2347119140625,-0.20118164062500002,1.0709488139825218,-0.049295559025794036,0.023581929588014985,0.01505513018895872
0.25147705078125,-0.19399658203125,1.1961423220973781,-0.05036140895067608,0.04343338443894285,0.016120980113840753
0.22752685546875,-0.18681152343750002,1.1825343320848933,-0.050094946469455566,0.05622358353752725,0.014655436467127957
0.18441650390625,-0.1580712890625,1.1144943820224729,-0.05089433391311709,0.05915467083095285,0.013989280264076687
0.18441650390625,-0.16046630859375,1.2124719101123596,-0.04956202150701454,0.061819295643157926,0.014788667707738212
0.14130615234375002,-0.14130615234375002,1.1090511860174779,-0.050094946469455566,0.05489127113142471,0.015854517632620243
0.16525634765625,-0.13412109375,1.1689263420724085,-0.05022817771006582,0.03983614094246599,0.01705359879811253
0.10777587890625001,-0.143701171875,1.125380774032461,-0.05235987755982988,0.024114854550456002,0.013722817782856177
0.13412109375,-0.15567626953125,1.1090511860174779,-0.04809647786030175,0.010125574286379316,0.01638744259506126
0.18441650390625,-0.1293310546875,1.190699126092385,-0.047963246619691494,0.00159877488732305,0.014522205226517704
0.14130615234375002,-0.08861572265625,1.133545568039949,-0.05222664631921963,-0.004663093421358896,0.01572128639200999
0.18202148437500001,-0.18202148437500001,1.1063295880149813,-0.04876263406335302,-0.0002664624812205083,0.011724349173702365
0.25147705078125,-0.10059082031250001,1.1090511860174779,-0.05302603376288115,0.009192955602107537,0.014255742745297196
0.22273681640625,-0.15328125,1.1090511860174779,-0.05209341507860938,0.015188361429568973,0.013722817782856177
0.296982421875,-0.14609619140625002,1.0899999999999999,-0.048895865303963275,0.02424808579106626,0.01705359879811253
0.239501953125,-0.15567626953125,0.9920224719101132,-0.0514272588755581,0.03344104139317379,0.014921898948348465
0.1676513671875,-0.15088623046875002,1.147153558052434,-0.04956202150701454,0.03743797861148142,0.013189892820415163
0.18441650390625,-0.11735595703125,1.18525593008739,-0.05062787143189658,0.04010260342368651,0.01532159267017923
0.20597167968750002,-0.1484912109375,1.095443196004993,-0.049162327785183785,0.041434915829789046,0.015188361429568973
0.1149609375,-0.14609619140625002,1.190699126092385,-0.05209341507860938,0.040901990867348026,0.015454823910789482
0.22273681640625,-0.14609619140625002,1.163483146067417,-0.05049464019128632,0.03930321598002497,0.017986217482384312
0.11256591796875001,-0.21555175781250002,1.1825343320848933,-0.048895865303963275,0.03130934154340973,0.015588055151399738
0.18920654296875,-0.09340576171875001,1.1308239700374525,-0.04769678413847099,0.0287779479718149,0.013589586542245922
0.11735595703125,-0.12693603515625002,1.1117727840199763,-0.048229709100912004,0.02518070447533804,0.016254211354451008
0.1676513671875,-0.17244140625,1.1172159800249695,-0.048229709100912004,0.02118376725703041,0.016120980113840753
0.1293310546875,-0.16046630859375,1.0219600499375776,-0.05089433391311709,0.014122511504686942,0.016787136316892024
0.2347119140625,-0.11017089843750001,1.1036079900124847,-0.04956202150701454,0.00985911180515881,0.016520673835671518
0.20357666015625,-0.15567626953125,1.0763920099875168,-0.050094946469455566,0.01212404289553313,0.017186830038722786
0.20118164062500002,-0.18681152343750002,1.2043071161048697,-0.050094946469455566,0.011591117933092112,0.015854517632620243
0.229921875,-0.1676513671875,1.158039950062422,-0.04942879026640429,0.013856049023466434,0.014522205226517704
0.239501953125,-0.15328125,1.119937578027466,-0.05302603376288115,0.021983154700691936,0.015588055151399738
0.22513183593750002,-0.16525634765625,1.0845568039950049,-0.05342572748471192,0.0305099540997482,0.015188361429568973
0.22034179687500002,-0.16046630859375,1.0110736579275894,-0.05089433391311709,0.03757120985209167,0.01665390507628177
0.16046630859375,-0.16046630859375,1.1716479400749051,-0.04862940282274277,0.041967840792230066,0.014921898948348465
0.14609619140625002,-0.1772314453125,1.1607615480649187,-0.0514272588755581,0.040768759626737774,0.01665390507628177
0.1484912109375,-0.16046630859375,1.1662047440699137,-0.05036140895067608,0.04223430327345057,0.014655436467127957
0.13172607421875002,-0.19878662109375,1.1498751560549323,-0.048229709100912004,0.035173047521107094,0.015987748873230498
0.143701171875,-0.1149609375,1.0219600499375776,-0.05062787143189658,0.028644716731204643,0.018119448722994567
0.16046630859375,-0.17244140625,1.2451310861423224,-0.05049464019128632,0.02051761105397914,0.014122511504686942
0.17004638671875,-0.15088623046875002,1.2206367041198494,-0.049162327785183785,0.010525268008210078,0.013056661579804908
0.20118164062500002,-0.12214599609375,1.1063295880149813,-0.04756355289786074,0.007061255752343471,0.014921898948348465
0.19878662109375,-0.11017089843750001,1.1498751560549323,-0.04809647786030175,0.005062787143189658,0.015987748873230498
0.17483642578125,-0.17004638671875,1.119937578027466,-0.04876263406335302,0.01025880552698957,0.012656967857974145
0.20597167968750002,-0.1197509765625,1.1063295880149813,-0.05049464019128632,0.01692036755750228,0.015454823910789482
0.239501953125,-0.1580712890625,1.1825343320848933,-0.048895865303963275,0.027179173084491845,0.015188361429568973
0.23231689453125,-0.14609619140625002,0.9838576779026216,-0.047963246619691494,0.03264165394951227,0.017986217482384312
0.20836669921875,-0.15567626953125,1.1417103620474407,-0.05022817771006582,0.0383705972957532,0.015588055151399738
0.19639160156250002,-0.17962646484375,1.0927215980024965,-0.048362940341522255,0.04236753451406082,0.020251148572758632
0.17962646484375,-0.09819580078125001,1.1172159800249695,-0.04996171522884531,0.044499234363824886,0.018119448722994567
0.20836669921875,-0.143701171875,1.0927215980024965,-0.049695252747624805,0.04316692195772235,0.014921898948348465
0.18202148437500001,-0.15567626953125,1.18525593008739,-0.051960183837999115,0.035439510002327604,0.01532159267017923
0.16046630859375,-0.15567626953125,1.1362671660424475,-0.04689739669480946,0.030243491618527695,0.01532159267017923
0.13412109375,-0.18920654296875,1.1444319600499373,-0.05022817771006582,0.021050536016420155,0.014655436467127957
0.14130615234375002,-0.1149609375,1.1444319600499373,-0.049162327785183785,0.018652373685435583,0.015454823910789482
0.20357666015625,-0.09101074218750001,1.18525593008739,-0.0514272588755581,0.012390505376753635,0.017586523760553547
0.21076171875000002,-0.17244140625,1.1498751560549323,-0.05235987755982988,0.009992343045769061,0.01705359879811253
0.14130615234375002,-0.16046630859375,1.0410112359550574,-0.05062787143189658,0.013856049023466434,0.013722817782856177
0.18681152343750002,-0.14130615234375002,1.0872784019975033,-0.04956202150701454,0.015987748873230498,0.014255742745297196
0.22034179687500002,-0.10777587890625001,1.158039950062422,-0.04689739669480946,0.02118376725703041,0.01532159267017923
0.24189697265625001,-0.14609619140625002,1.0736704119850184,-0.05049464019128632,0.026646248122050832,0.016120980113840753
0.20597167968750002,-0.10298583984375001,1.1716479400749051,-0.0511607963943376,0.03357427263378405,0.018252679963604822
0.24668701171875002,-0.16046630859375,1.1770911360799001,-0.04942879026640429,0.03450689131805583,0.014921898948348465
0.17962646484375,-0.17004638671875,1.1662047440699137,-0.0514272588755581,0.03477335379927634,0.01705359879811253
0.20118164062500002,-0.17004638671875,1.2913982521847682,-0.0511607963943376,0.03450689131805583,0.014122511504686942
0.1772314453125,-0.15567626953125,1.1308239700374525,-0.05062787143189658,0.03477335379927634,0.01665390507628177
0.1772314453125,-0.17004638671875,1.0791136079900134,-0.04956202150701454,0.027978560528153375,0.01665390507628177
0.11256591796875001,-0.21555175781250002,1.1362671660424475,-0.05089433391311709,0.026513016881440574,0.01732006127933304
0.17244140625,-0.10777587890625001,1.1117727840199763,-0.05182695259738886,0.019052067407266345,0.015188361429568973
0.16525634765625,-0.1149609375,1.0464544319600488,-0.04849617158213252,0.016787136316892024,0.012390505376753635
0.1484912109375,-0.1293310546875,1.1689263420724085,-0.05102756515372735,0.01692036755750228,0.015854517632620243
0.15328125,-0.143701171875,1.2587390761548054,-0.05062787143189658,0.01945176112909711,0.017453292519943295
0.23710693359375,-0.14130615234375002,1.1308239700374525,-0.05076110267250683,0.020917304775809907,0.01705359879811253
0.1580712890625,-0.13412109375,1.0682272159800252,-0.05102756515372735,0.020384379813368887,0.01532159267017923
0.17004638671875,-0.1484912109375,1.08183520599251,-0.050094946469455566,0.031176110302799476,0.016254211354451008
0.2347119140625,-0.14130615234375002,1.1036079900124847,-0.04716385917602997,0.03330781015256354,0.010658499248820334
0.21315673828125,-0.18202148437500001,1.158039950062422,-0.05049464019128632,0.03770444109270193,0.01638744259506126
0.1676513671875,-0.10538085937500001,1.1607615480649187,-0.049162327785183785,0.03264165394951227,0.01572128639200999
0.18441650390625,-0.12214599609375,1.1172159800249695,-0.04996171522884531,0.03410719759622506,0.018385911204215073
0.1389111328125,-0.1676513671875,1.0464544319600488,-0.04729709041664023,0.030376722859137947,0.01572128639200999
0.14130615234375002,-0.15328125,1.0110736579275894,-0.05036140895067608,0.024114854550456002,0.01532159267017923
0.1484912109375,-0.16525634765625,1.2070287141073646,-0.05102756515372735,0.02331546710679448,0.014788667707738212
0.13651611328125002,-0.10059082031250001,1.1743695380774035,-0.04942879026640429,0.01891883616665609,0.014788667707738212
0.20836669921875,-0.10538085937500001,1.138988764044944,-0.05169372135677862,0.018119448722994567,0.013056661579804908
0.19639160156250002,-0.16046630859375,1.0410112359550574,-0.04996171522884531,0.020384379813368887,0.017186830038722786
0.18441650390625,-0.1197509765625,1.0899999999999999,-0.05222664631921963,0.017986217482384312,0.01638744259506126
0.20597167968750002,-0.19639160156250002,1.1036079900124847,-0.05022817771006582,0.022382848422522698,0.01665390507628177
0.20357666015625,-0.14609619140625002,1.062784019975032,-0.05289280252227091,0.028111791768763626,0.017719755001163802
0.19878662109375,-0.13412109375,1.138988764044944,-0.04862940282274277,0.028111791768763626,0.01705359879811253
0.21315673828125,-0.1484912109375,1.1144943820224729,-0.05036140895067608,0.031042879062189218,0.017453292519943295
0.17483642578125,-0.20836669921875,1.122659176029961,-0.05049464019128632,0.03344104139317379,0.01505513018895872
0.18920654296875,-0.22752685546875,1.1063295880149813,-0.04902909654457353,0.02917764169364566,0.01345635530163567
0.17483642578125,-0.1293310546875,1.125380774032461,-0.0511607963943376,0.031176110302799476,0.015588055151399738
0.15567626953125,-0.10538085937500001,1.0927215980024965,-0.05062787143189658,0.028378254249984136,0.015454823910789482
0.15328125,-0.13651611328125002,1.1144943820224729,-0.04942879026640429,0.024914241994117528,0.014921898948348465
0.229921875,-0.1772314453125,1.1036079900124847,-0.049162327785183785,0.021849923460081685,0.015454823910789482
0.20836669921875,-0.13172607421875002,1.1090511860174779,-0.05169372135677862,0.022649310903743208,0.014655436467127957
0.19399658203125,-0.22752685546875,1.0763920099875168,-0.05022817771006582,0.020917304775809907,0.01638744259506126
0.20836669921875,-0.17483642578125,1.0600624219725336,-0.05049464019128632,0.019052067407266345,0.01665390507628177
0.20357666015625,-0.1772314453125,1.1063295880149813,-0.04942879026640429,0.024114854550456002,0.01532159267017923
0.25626708984375,-0.18202148437500001,1.1172159800249695,-0.05062787143189658,0.025447166956558544,0.01732006127933304
0.19399658203125,-0.10777587890625001,1.228801498127341,-0.049828483988235056,0.02624655440022007,0.01532159267017923
0.22273681640625,-0.18202148437500001,1.2070287141073646,-0.048362940341522255,0.02771209804693287,0.017719755001163802
0.17004638671875,-0.1676513671875,1.1090511860174779,-0.049828483988235056,0.02851148549059439,0.011990811654922873
0.15567626953125,-0.14130615234375002,1.057340823970037,-0.049695252747624805,0.028911179212425156,0.018785604926045835
0.162861328125,-0.162861328125,1.2097503121098612,-0.04876263406335302,0.025447166956558544,0.012656967857974145
0.17962646484375,-0.14130615234375002,1.1689263420724085,-0.05062787143189658,0.026779479362661087,0.017186830038722786
0.20597167968750002,-0.15567626953125,1.0981647940074897,-0.04689739669480946,0.023581929588014985,0.013589586542245922
0.16046630859375,-0.15088623046875002,1.1825343320848933,-0.04956202150701454,0.02278254214435346,0.01438897398590745
0.21315673828125,-0.19160156250000002,1.1607615480649187,-0.05182695259738886,0.024914241994117528,0.01732006127933304
0.17962646484375,-0.18920654296875,1.119937578027466,-0.049162327785183785,0.02424808579106626,0.015588055151399738
0.258662109375,-0.1293310546875,1.1825343320848933,-0.04862940282274277,0.023848392069235495,0.014255742745297196
0.1484912109375,-0.15328125,1.163483146067417,-0.05022817771006582,0.02518070447533804,0.015454823910789482
0.17004638671875,-0.19399658203125,1.133545568039949,-0.04876263406335302,0.024514548272286767,0.01638744259506126
0.2442919921875,-0.12693603515625002,1.1444319600499373,-0.0511607963943376,0.021849923460081685,0.01638744259506126
0.15567626953125,-0.11017089843750001,1.1036079900124847,-0.04862940282274277,0.023049004625573973,0.016254211354451008
0.20118164062500002,-0.13412109375,1.1417103620474407,-0.04876263406335302,0.027578866806322613,0.01572128639200999
0.20118164062500002,-0.16046630859375,1.1444319600499373,-0.050094946469455566,0.027179173084491845,0.01505513018895872
0.18441650390625,-0.18920654296875,1.1417103620474407,-0.04996171522884531,0.026779479362661087,0.017453292519943295
0.25387207031250003,-0.19878662109375,1.1362671660424475,-0.04996171522884531,0.03077641658096871,0.01505513018895872
0.18681152343750002,-0.14130615234375002,1.1607615480649187,-0.049162327785183785,0.027978560528153375,0.01532159267017923
0.20118164062500002,-0.16525634765625,1.152596754057429,-0.05036140895067608,0.03064318534035846,0.015854517632620243
0.21555175781250002,-0.17004638671875,1.1036079900124847,-0.049695252747624805,0.026379785640830326,0.01705359879811253
0.20357666015625,-0.162861328125,1.119937578027466,-0.05222664631921963,0.024514548272286767,0.01732006127933304
0.17244140625,-0.18202148437500001,1.1743695380774035,-0.04942879026640429,0.022516079663132956,0.014122511504686942
0.162861328125,-0.162861328125,1.147153558052434,-0.04862940282274277,0.022516079663132956,0.017186830038722786
0.20357666015625,-0.18202148437500001,1.0491760299625454,-0.05062787143189658,0.01958499236970736,0.0127901990985844
0.1484912109375,-0.13412109375,1.138988764044944,-0.05169372135677862,0.0255803981971688,0.015188361429568973
0.19878662109375,-0.1197509765625,1.152596754057429,-0.05062787143189658,0.02331546710679448,0.01025880552698957
0.19878662109375,-0.13412109375,1.1743695380774035,-0.049295559025794036,0.02571362943777905,0.014921898948348465
0.15088623046875002,-0.21794677734375,1.1689263420724085,-0.05049464019128632,0.026779479362661087,0.015188361429568973
0.21794677734375,-0.09580078125000001,1.0927215980024965,-0.049695252747624805,0.027978560528153375,0.015854517632620243
0.20357666015625,-0.1484912109375,1.1770911360799001,-0.04956202150701454,0.03264165394951227,0.01532159267017923
0.19878662109375,-0.1484912109375,1.1825343320848933,-0.050094946469455566,0.02784532928754312,0.014788667707738212
0.24668701171875002,-0.18681152343750002,1.190699126092385,-0.05275957128166065,0.0255803981971688,0.014921898948348465
0.20597167968750002,-0.13651611328125002,1.100886392009988,-0.05102756515372735,0.027045941843881597,0.01931852988848685
0.20357666015625,-0.143701171875,1.0981647940074897,-0.050094946469455566,0.021450229738250916,0.018252679963604822
0.18441650390625,-0.14130615234375002,1.1444319600499373,-0.05062787143189658,0.02424808579106626,0.017186830038722786
0.22513183593750002,-0.22034179687500002,1.0682272159800252,-0.04956202150701454,0.027179173084491845,0.013856049023466434
0.17244140625,-0.14130615234375002,1.125380774032461,-0.04689739669480946,0.02371516082862524,0.015854517632620243
0.21076171875000002,-0.17244140625,1.08183520599251,-0.05249310880044014,0.022516079663132956,0.017186830038722786
0.15567626953125,-0.13172607421875002,1.0328464419475658,-0.05222664631921963,0.020251148572758632,0.016787136316892024
0.22513183593750002,-0.10777587890625001,1.1417103620474407,-0.04862940282274277,0.023049004625573973,0.016120980113840753
0.17004638671875,-0.20836669921875,1.122659176029961,-0.049162327785183785,0.027978560528153375,0.009725880564548555
0.1580712890625,-0.162861328125,1.0763920099875168,-0.04942879026640429,0.02624655440022007,0.014655436467127957
0.1580712890625,-0.17004638671875,1.158039950062422,-0.05049464019128632,0.028911179212425156,0.013323124061025416
0.20118164062500002,-0.19878662109375,0.9893008739076166,-0.05235987755982988,0.026779479362661087,0.013989280264076687
0.1772314453125,-0.16046630859375,1.1172159800249695,-0.05182695259738886,0.02971056665608668,0.01532159267017923
0.20836669921875,-0.13651611328125002,1.133545568039949,-0.05302603376288115,0.027179173084491845,0.01692036755750228
0.18920654296875,-0.1197509765625,1.1090511860174779,-0.048229709100912004,0.024114854550456002,0.01692036755750228
0.1484912109375,-0.162861328125,1.138988764044944,-0.049295559025794036,0.024114854550456002,0.016787136316892024
0.19160156250000002,-0.18681152343750002,1.1798127340823967,-0.05156049011616837,0.026113323159609816,0.015188361429568973
0.18681152343750002,-0.18681152343750002,1.128102372034956,-0.05062787143189658,0.023182235866184224,0.01732006127933304
0.17483642578125,-0.16046630859375,1.125380774032461,-0.05169372135677862,0.023981623309845747,0.017719755001163802
0.239501953125,-0.16046630859375,1.1444319600499373,-0.05022817771006582,0.021983154700691936,0.013856049023466434
0.18202148437500001,-0.1484912109375,1.1308239700374525,-0.049695252747624805,0.02424808579106626,0.01572128639200999
0.1772314453125,-0.15088623046875002,1.1444319600499373,-0.04876263406335302,0.029044410453035407,0.014522205226517704
0.162861328125,-0.14130615234375002,1.1036079900124847,-0.05022817771006582,0.028644716731204643,0.017453292519943295
0.1389111328125,-0.17962646484375,1.122659176029961,-0.05382542120654268,0.031709035265240486,0.015987748873230498
0.19160156250000002,-0.15088623046875002,1.100886392009988,-0.051960183837999115,0.032375191468291764,0.013856049023466434
0.22273681640625,-0.10538085937500001,1.1362671660424475,-0.04769678413847099,0.026513016881440574,0.013856049023466434
0.11256591796875001,-0.10298583984375001,1.0845568039950049,-0.05182695259738886,0.027045941843881597,0.015854517632620243
0.17244140625,-0.14609619140625002,1.1934207240948815,-0.05156049011616837,0.02624655440022007,0.018519142444825328
0.21076171875000002,-0.162861328125,1.1498751560549323,-0.049162327785183785,0.021050536016420155,0.015987748873230498
0.1197509765625,-0.1484912109375,1.0682272159800252,-0.048229709100912004,0.022516079663132956,0.016787136316892024
0.17962646484375,-0.1772314453125,0.9348689138576773,-0.04849617158213252,0.023049004625573973,0.015854517632620243
0.18202148437500001,-0.12693603515625002,1.2070287141073646,-0.05076110267250683,0.021450229738250916,0.013589586542245922
0.229921875,-0.18441650390625,1.1879775280898883,-0.0514272588755581,0.02624655440022007,0.01572128639200999
0.18441650390625,-0.09580078125000001,1.1798127340823967,-0.04956202150701454,0.027445635565712355,0.015588055151399738
0.20836669921875,-0.143701171875,1.1036079900124847,-0.048895865303963275,0.02851148549059439,0.01505513018895872
0.20118164062500002,-0.16046630859375,1.2315230961298376,-0.04849617158213252,0.028911179212425156,0.012257274136143383
0.1484912109375,-0.19399658203125,1.1689263420724085,-0.05235987755982988,0.028245023009373885,0.015188361429568973
0.19399658203125,-0.09819580078125001,1.2070287141073646,-0.04956202150701454,0.031575804024630234,0.01638744259506126
0.16046630859375,-0.15088623046875002,1.1417103620474407,-0.04956202150701454,0.028644716731204643,0.01692036755750228
0.15328125,-0.17004638671875,1.1934207240948815,-0.050094946469455566,0.021849923460081685,0.017719755001163802
0.19160156250000002,-0.17004638671875,1.1362671660424475,-0.0511607963943376,0.026113323159609816,0.018785604926045835
0.20836669921875,-0.1772314453125,1.1308239700374525,-0.050094946469455566,0.026513016881440574,0.018652373685435583
0.20118164062500002,-0.22034179687500002,1.0301248439450692,-0.0514272588755581,0.021849923460081685,0.01505513018895872
0.1580712890625,-0.20357666015625,1.2206367041198494,-0.04902909654457353,0.023848392069235495,0.01705359879811253
0.19399658203125,-0.1676513671875,1.1988639200998765,-0.0511607963943376,0.02438131703167651,0.01705359879811253
0.2347119140625,-0.11256591796875001,1.1689263420724085,-0.04716385917602997,0.022915773384963714,0.018252679963604822
0.22752685546875,-0.15088623046875002,1.133545568039949,-0.05049464019128632,0.026646248122050832,0.017453292519943295
0.21555175781250002,-0.09580078125000001,1.0083520599250928,-0.050094946469455566,0.02971056665608668,0.012257274136143383
0.15328125,-0.18681152343750002,1.122659176029961,-0.0511607963943376,0.02691271060327134,0.017186830038722786
0.19639160156250002,-0.18202148437500001,1.138988764044944,-0.049828483988235056,0.02624655440022007,0.01665390507628177
0.21076171875000002,-0.19160156250000002,1.1417103620474407,-0.05182695259738886,0.02851148549059439,0.013189892820415163
0.24908203125,-0.15328125,1.100886392009988,-0.04716385917602997,0.027312404325102103,0.01532159267017923
0.18681152343750002,-0.162861328125,1.125380774032461,-0.050094946469455566,0.026646248122050832,0.01345635530163567
0.15567626953125,-0.18920654296875,1.0682272159800252,-0.05169372135677862,0.021716692219471426,0.014122511504686942
0.17483642578125,-0.1389111328125,1.119937578027466,-0.04876263406335302,0.021583460978861175,0.01638744259506126
0.19639160156250002,-0.17244140625,1.0437328339575522,-0.05089433391311709,0.023981623309845747,0.017986217482384312
0.1484912109375,-0.1580712890625,1.1144943820224729,-0.05209341507860938,0.022382848422522698,0.011591117933092112
0.19399658203125,-0.18202148437500001,1.0872784019975033,-0.04783001537908124,0.02571362943777905,0.017719755001163802
0.20836669921875,-0.17244140625,1.100886392009988,-0.05049464019128632,0.02331546710679448,0.01705359879811253
0.18441650390625,-0.15088623046875002,1.122659176029961,-0.048895865303963275,0.028911179212425156,0.014655436467127957
0.19399658203125,-0.13172607421875002,1.2206367041198494,-0.04862940282274277,0.02571362943777905,0.014921898948348465
0.19160156250000002,-0.10777587890625001,1.1689263420724085,-0.04956202150701454,0.027578866806322613,0.013722817782856177
0.19160156250000002,-0.1676513671875,1.138988764044944,-0.051960183837999115,0.027045941843881597,0.01692036755750228
0.143701171875,-0.16046630859375,1.1879775280898883,-0.04729709041664023,0.028378254249984136,0.015588055151399738
0.20597167968750002,-0.18681152343750002,1.0437328339575522,-0.049695252747624805,0.0287779479718149,0.01665390507628177
0.143701171875,-0.16046630859375,1.095443196004993,-0.05169372135677862,0.023049004625573973,0.01665390507628177
0.16525634765625,-0.15328125,1.119937578027466,-0.049695252747624805,0.02331546710679448,0.013189892820415163
0.18920654296875,-0.162861328125,1.0682272159800252,-0.05049464019128632,0.022649310903743208,0.015588055151399738
0.22752685546875,-0.21076171875000002,1.1090511860174779,-0.04956202150701454,0.025447166956558544,0.013722817782856177
0.16525634765625,-0.1389111328125,1.122659176029961,-0.04956202150701454,0.025447166956558544,0.014522205226517704
0.16046630859375,-0.1389111328125,1.0872784019975033,-0.050094946469455566,0.024114854550456002,0.01438897398590745
0.17244140625,-0.15328125,1.18525593008739,-0.04996171522884531,0.026379785640830326,0.013056661579804908
0.20836669921875,-0.21555175781250002,1.138988764044944,-0.05062787143189658,0.023981623309845747,0.018385911204215073
0.24668701171875002,-0.17244140625,1.1934207240948815,-0.05169372135677862,0.027578866806322613,0.01438897398590745
0.1772314453125,-0.14609619140625002,1.095443196004993,-0.05235987755982988,0.02478101075350727,0.013189892820415163
0.21555175781250002,-0.15088623046875002,1.0872784019975033,-0.049162327785183785,0.026513016881440574,0.015588055151399738
0.21076171875000002,-0.1484912109375,1.138988764044944,-0.05235987755982988,0.029444104174866172,0.017586523760553547
0.162861328125,-0.1197509765625,1.152596754057429,-0.04876263406335302,0.02518070447533804,0.01572128639200999
0.20118164062500002,-0.1197509765625,1.2886766541822734,-0.04956202150701454,0.028111791768763626,0.01971822361031762
0.20357666015625,-0.13172607421875002,1.1934207240948815,-0.050094946469455566,0.026113323159609816,0.01532159267017923
0.20357666015625,-0.14130615234375002,1.1362671660424475,-0.05262634004105039,0.026113323159609816,0.018652373685435583
0.17483642578125,-0.18920654296875,1.0083520599250928,-0.049695252747624805,0.023848392069235495,0.016520673835671518
0.1676513671875,-0.13651611328125002,1.1743695380774035,-0.05102756515372735,0.02624655440022007,0.016120980113840753
0.1676513671875,-0.18441650390625,1.1172159800249695,-0.05182695259738886,0.025047473234727783,0.016120980113840753
0.17004638671875,-0.1484912109375,1.1770911360799001,-0.05049464019128632,0.0255803981971688,0.013589586542245922
0.20836669921875,-0.18920654296875,1.2070287141073646,-0.05182695259738886,0.02478101075350727,0.016120980113840753
0.19399658203125,-0.17483642578125,1.1172159800249695,-0.04783001537908124,0.02917764169364566,0.015454823910789482
0.19160156250000002,-0.11017089843750001,1.1362671660424475,-0.049295559025794036,0.023981623309845747,0.01438897398590745
0.19399658203125,-0.162861328125,1.1553183520599255,-0.0511607963943376,0.026779479362661087,0.015188361429568973
0.16046630859375,-0.16046630859375,1.1036079900124847,-0.05209341507860938,0.02531393571594829,0.016520673835671518
0.18681152343750002,-0.22273681640625,1.1716479400749051,-0.05049464019128632,0.02518070447533804,0.01638744259506126
0.10777587890625001,-0.17962646484375,1.133545568039949,-0.05102756515372735,0.02278254214435346,0.016787136316892024
0.1484912109375,-0.1676513671875,1.1063295880149813,-0.05049464019128632,0.02531393571594829,0.016254211354451008
0.24908203125,-0.14609619140625002,1.1444319600499373,-0.04849617158213252,0.02331546710679448,0.014788667707738212
0.17483642578125,-0.143701171875,1.1879775280898883,-0.05302603376288115,0.0255803981971688,0.01638744259506126
0.21794677734375,-0.17244140625,1.019238451935081,-0.0511607963943376,0.026513016881440574,0.017453292519943295
0.26105712890625,-0.18202148437500001,1.1716479400749051,-0.054225114928373445,0.027312404325102103,0.016254211354451008
0.19399658203125,-0.1484912109375,1.1770911360799001,-0.04862940282274277,0.028378254249984136,0.01532159267017923
0.15328125,-0.15567626953125,1.163483146067417,-0.049295559025794036,0.02971056665608668,0.017986217482384312
0.17962646484375,-0.20118164062500002,1.133545568039949,-0.049162327785183785,0.027179173084491845,0.014788667707738212
0.20357666015625,-0.18202148437500001,1.1117727840199763,-0.05222664631921963,0.025447166956558544,0.011591117933092112
0.18681152343750002,-0.1580712890625,1.2396878901373292,-0.049162327785183785,0.023182235866184224,0.014522205226517704
0.1772314453125,-0.17962646484375,1.2124719101123596,-0.04996171522884531,0.026379785640830326,0.015854517632620243
0.17962646484375,-0.15567626953125,1.095443196004993,-0.048895865303963275,0.02344869834740473,0.016520673835671518
0.21555175781250002,-0.1389111328125,1.1172159800249695,-0.05076110267250683,0.026379785640830326,0.016787136316892024
0.1293310546875,-0.19160156250000002,1.2015855181023731,-0.05062787143189658,0.029577335415476424,0.015188361429568973
0.19639160156250002,-0.06945556640625,1.0655056179775286,-0.0464977029729787,0.02584686067838931,0.015987748873230498
0.1676513671875,-0.0814306640625,1.0763920099875168,-0.05022817771006582,0.027445635565712355,0.016787136316892024
0.20118164062500002,-0.13651611328125002,1.1308239700374525,-0.04743032165725048,0.02438131703167651,0.01732006127933304
0.10538085937500001,-0.10059082031250001,1.122659176029961,-0.053292496244101664,0.02331546710679448,0.013856049023466434
0.1389111328125,-0.12214599609375,1.2179151061173528,-0.049828483988235056,0.022116385941302188,0.015854517632620243
0.27303222656250004,-0.11735595703125,1.133545568039949,-0.04996171522884531,0.02078407353519965,0.015454823910789482
0.1484912109375,-0.1676513671875,1.095443196004993,-0.05076110267250683,0.02051761105397914,0.017453292519943295
0.17483642578125,-0.21315673828125,1.0872784019975033,-0.05076110267250683,0.023049004625573973,0.01572128639200999
0.1772314453125,-0.162861328125,1.1689263420724085,-0.04862940282274277,0.024647779512897018,0.015987748873230498
0.19639160156250002,-0.1197509765625,1.1607615480649187,-0.048895865303963275,0.0305099540997482,0.014655436467127957
0.15567626953125,-0.1293310546875,1.0518976279650438,-0.05169372135677862,0.027445635565712355,0.01638744259506126
0.239501953125,-0.16046630859375,1.163483146067417,-0.050094946469455566,0.029310872934255914,0.014788667707738212
0.23710693359375,-0.15567626953125,1.1689263420724085,-0.05076110267250683,0.028911179212425156,0.014255742745297196
0.22034179687500002,-0.12693603515625002,1.0600624219725336,-0.053159265003491406,0.027045941843881597,0.014522205226517704
0.17483642578125,-0.21315673828125,1.125380774032461,-0.04996171522884531,0.027445635565712355,0.01638744259506126
0.162861328125,-0.15088623046875002,1.1172159800249695,-0.048229709100912004,0.028245023009373885,0.015454823910789482
0.20118164062500002,-0.162861328125,1.0763920099875168,-0.05076110267250683,0.024647779512897018,0.015454823910789482
0.20118164062500002,-0.15567626953125,1.1090511860174779,-0.04956202150701454,0.020650842294589397,0.017453292519943295
0.16046630859375,-0.162861328125,1.100886392009988,-0.05275957128166065,0.027445635565712355,0.015588055151399738
0.20836669921875,-0.13651611328125002,1.0655056179775286,-0.04636447173236845,0.026513016881440574,0.013722817782856177
0.17962646484375,-0.17004638671875,1.0518976279650438,-0.04942879026640429,0.025980091918999557,0.016254211354451008
0.13412109375,-0.11735595703125,1.2206367041198494,-0.050094946469455566,0.0255803981971688,0.013856049023466434
0.14609619140625002,-0.1149609375,1.128102372034956,-0.05036140895067608,0.022649310903743208,0.01345635530163567
0.19639160156250002,-0.17962646484375,1.18525593008739,-0.049295559025794036,0.022649310903743208,0.01438897398590745
0.19878662109375,-0.14609619140625002,1.125380774032461,-0.049295559025794036,0.017986217482384312,0.016520673835671518
0.21076171875000002,-0.11735595703125,1.1444319600499373,-0.04849617158213252,0.023182235866184224,0.015188361429568973
0.19399658203125,-0.1580712890625,1.0709488139825218,-0.05076110267250683,0.027045941843881597,0.01505513018895872
0.19399658203125,-0.12214599609375,1.158039950062422,-0.05022817771006582,0.028378254249984136,0.013989280264076687
0.18202148437500001,-0.1484912109375,1.095443196004993,-0.04996171522884531,0.03344104139317379,0.014655436467127957
0.19878662109375,-0.1293310546875,1.122659176029961,-0.047963246619691494,0.031709035265240486,0.013989280264076687
0.20118164062500002,-0.162861328125,1.1308239700374525,-0.05036140895067608,0.0305099540997482,0.014255742745297196
0.12693603515625002,-0.1580712890625,1.0791136079900134,-0.049695252747624805,0.024647779512897018,0.014788667707738212
0.1676513671875,-0.1772314453125,1.1879775280898883,-0.05129402763494785,0.027445635565712355,0.017719755001163802
0.19639160156250002,-0.17004638671875,1.1988639200998765,-0.05102756515372735,0.01971822361031762,0.015987748873230498
0.1676513671875,-0.12693603515625002,1.1498751560549323,-0.04956202150701454,0.018785604926045835,0.015987748873230498
0.1580712890625,-0.067060546875,1.1117727840199763,-0.049695252747624805,0.021450229738250916,0.015454823910789482
0.15088623046875002,-0.1676513671875,1.138988764044944,-0.048362940341522255,0.02131699849764067,0.015588055151399738
0.17244140625,-0.12693603515625002,1.0655056179775286,-0.049828483988235056,0.023848392069235495,0.016520673835671518
0.23710693359375,-0.17244140625,1.1825343320848933,-0.04876263406335302,0.02571362943777905,0.014522205226517704
0.18920654296875,-0.13412109375,1.125380774032461,-0.05036140895067608,0.02691271060327134,0.016120980113840753
0.20118164062500002,-0.18681152343750002,1.08183520599251,-0.04956202150701454,0.03064318534035846,0.014522205226517704
0.23710693359375,-0.19639160156250002,1.1362671660424475,-0.05262634004105039,0.026646248122050832,0.015854517632620243
0.17962646484375,-0.1197509765625,1.08183520599251,-0.04996171522884531,0.031042879062189218,0.015454823910789482
0.22273681640625,-0.15088623046875002,1.128102372034956,-0.04743032165725048,0.02518070447533804,0.016787136316892024
0.15328125,-0.162861328125,1.1308239700374525,-0.04956202150701454,0.027978560528153375,0.013189892820415163
0.143701171875,-0.21076171875000002,1.1988639200998765,-0.049695252747624805,0.030243491618527695,0.017186830038722786
0.19639160156250002,-0.13172607421875002,1.1689263420724085,-0.04862940282274277,0.02624655440022007,0.014788667707738212
0.20597167968750002,-0.15088623046875002,1.147153558052434,-0.04902909654457353,0.028245023009373885,0.011724349173702365
0.21794677734375,-0.13172607421875002,1.138988764044944,-0.04996171522884531,0.023848392069235495,0.014788667707738212
0.239501953125,-0.1676513671875,1.1825343320848933,-0.04956202150701454,0.02331546710679448,0.016254211354451008
0.143701171875,-0.1580712890625,1.1308239700374525,-0.04729709041664023,0.0191852986478766,0.013056661579804908
0.25626708984375,-0.15088623046875002,1.0546192259675404,-0.04689739669480946,0.021716692219471426,0.015588055151399738
0.21315673828125,-0.20357666015625,1.158039950062422,-0.04809647786030175,0.02438131703167651,0.0127901990985844
0.25147705078125,-0.15567626953125,1.095443196004993,-0.05129402763494785,0.027045941843881597,0.017586523760553547
0.162861328125,-0.17004638671875,1.1036079900124847,-0.04942879026640429,0.029577335415476424,0.01438897398590745
0.19878662109375,-0.12214599609375,1.0899999999999999,-0.05182695259738886,0.031176110302799476,0.016520673835671518
0.20597167968750002,-0.14130615234375002,1.2151935081148562,-0.049295559025794036,0.029577335415476424,0.01692036755750228
0.17004638671875,-0.18920654296875,1.125380774032461,-0.04809647786030175,0.028644716731204643,0.014122511504686942
0.22273681640625,-0.21315673828125,1.190699126092385,-0.04716385917602997,0.024914241994117528,0.017186830038722786
0.17962646484375,-0.14130615234375002,1.1879775280898883,-0.05249310880044014,0.024647779512897018,0.013589586542245922
0.20118164062500002,-0.1772314453125,1.08183520599251,-0.04876263406335302,0.02118376725703041,0.015454823910789482
0.18441650390625,-0.1389111328125,1.152596754057429,-0.04996171522884531,0.01891883616665609,0.01572128639200999
0.17483642578125,-0.12693603515625002,1.1090511860174779,-0.05169372135677862,0.021716692219471426,0.014788667707738212
0.21315673828125,-0.162861328125,1.18525593008739,-0.05076110267250683,0.01958499236970736,0.014122511504686942
0.19399658203125,-0.17244140625,1.1117727840199763,-0.04942879026640429,0.022382848422522698,0.017852986241774057
0.229921875,-0.19878662109375,1.0736704119850184,-0.04663093421358896,0.02691271060327134,0.01438897398590745
0.19160156250000002,-0.18681152343750002,1.1090511860174779,-0.05102756515372735,0.0287779479718149,0.011990811654922873
0.23231689453125,-0.12214599609375,1.1308239700374525,-0.04743032165725048,0.028111791768763626,0.01505513018895872
0.22752685546875,-0.17962646484375,1.1308239700374525,-0.05036140895067608,0.026646248122050832,0.013589586542245922
0.23710693359375,-0.17962646484375,1.1308239700374525,-0.049295559025794036,0.027445635565712355,0.015854517632620243
0.18441650390625,-0.19878662109375,1.1798127340823967,-0.04902909654457353,0.029310872934255914,0.018252679963604822
0.20597167968750002,-0.17244140625,1.1743695380774035,-0.048895865303963275,0.02851148549059439,0.015454823910789482
0.16525634765625,-0.14130615234375002,1.2342446941323342,-0.04942879026640429,0.028245023009373885,0.017186830038722786
0.20118164062500002,-0.15567626953125,1.095443196004993,-0.04689739669480946,0.0287779479718149,0.013056661579804908
0.239501953125,-0.1484912109375,1.1879775280898883,-0.0514272588755581,0.022382848422522698,0.018652373685435583
0.21076171875000002,-0.17244140625,1.1662047440699137,-0.05062787143189658,0.023049004625573973,0.016787136316892024
0.14130615234375002,-0.11017089843750001,1.1417103620474407,-0.04809647786030175,0.02278254214435346,0.01638744259506126
0.19639160156250002,-0.18202148437500001,1.0791136079900134,-0.05049464019128632,0.02438131703167651,0.01532159267017923
0.19639160156250002,-0.09101074218750001,1.1743695380774035,-0.049828483988235056,0.022516079663132956,0.01945176112909711
0.17004638671875,-0.14609619140625002,1.08183520599251,-0.049695252747624805,0.023848392069235495,0.014921898948348465
0.1676513671875,-0.18920654296875,1.0899999999999999,-0.04876263406335302,0.023981623309845747,0.017453292519943295
0.18441650390625,-0.1389111328125,1.100886392009988,-0.04942879026640429,0.02278254214435346,0.015854517632620243
0.16525634765625,-0.10777587890625001,1.1144943820224729,-0.05036140895067608,0.02917764169364566,0.013989280264076687
0.20118164062500002,-0.10777587890625001,1.190699126092385,-0.05249310880044014,0.021849923460081685,0.014655436467127957
0.20118164062500002,-0.143701171875,1.1444319600499373,-0.05049464019128632,0.026113323159609816,0.01345635530163567
0.20836669921875,-0.15088623046875002,1.1144943820224729,-0.04902909654457353,0.024114854550456002,0.015987748873230498
0.22273681640625,-0.19639160156250002,1.1362671660424475,-0.04743032165725048,0.02624655440022007,0.014122511504686942
0.21315673828125,-0.09340576171875001,1.152596754057429,-0.05036140895067608,0.022382848422522698,0.017586523760553547
0.20836669921875,-0.12214599609375,1.1036079900124847,-0.0464977029729787,0.027045941843881597,0.015188361429568973
0.20118164062500002,-0.13651611328125002,1.0328464419475658,-0.05102756515372735,0.03011026037791744,0.013722817782856177
0.1149609375,-0.15567626953125,1.2396878901373292,-0.05022817771006582,0.0287779479718149,0.013856049023466434
0.15088623046875002,-0.17483642578125,1.1798127340823967,-0.05129402763494785,0.03277488519012252,0.016787136316892024
0.143701171875,-0.12693603515625002,1.147153558052434,-0.048895865303963275,0.03450689131805583,0.015454823910789482
0.19639160156250002,-0.1389111328125,1.1798127340823967,-0.04956202150701454,0.027978560528153375,0.014655436467127957
0.18202148437500001,-0.08382568359375,1.18525593008739,-0.05076110267250683,0.026379785640830326,0.015454823910789482
0.17483642578125,-0.162861328125,1.1063295880149813,-0.05262634004105039,0.024114854550456002,0.012923430339194655
0.162861328125,-0.09101074218750001,1.0736704119850184,-0.05129402763494785,0.021983154700691936,0.014255742745297196
0.20597167968750002,-0.076640625,1.147153558052434,-0.050094946469455566,0.01971822361031762,0.014788667707738212
0.14609619140625002,-0.1676513671875,1.1308239700374525,-0.049695252747624805,0.018652373685435583,0.014122511504686942
0.13651611328125002,-0.16525634765625,1.125380774032461,-0.049295559025794036,0.020650842294589397,0.01732006127933304
0.17244140625,-0.15328125,1.057340823970037,-0.050094946469455566,0.025447166956558544,0.014122511504686942
0.24668701171875002,-0.17483642578125,1.0382896379525608,-0.048362940341522255,0.027045941843881597,0.014921898948348465
0.20357666015625,-0.12214599609375,1.128102372034956,-0.0511607963943376,0.02851148549059439,0.015588055151399738
0.17244140625,-0.17483642578125,1.1716479400749051,-0.04769678413847099,0.0305099540997482,0.017186830038722786
0.22034179687500002,-0.13412109375,1.0274032459425726,-0.04956202150701454,0.03384073511500456,0.01665390507628177
0.1676513671875,-0.21794677734375,1.2206367041198494,-0.049828483988235056,0.025980091918999557,0.013722817782856177
0.16046630859375,-0.20836669921875,1.1553183520599255,-0.051960183837999115,0.02584686067838931,0.01692036755750228
0.21794677734375,-0.18920654296875,1.1988639200998765,-0.05262634004105039,0.023581929588014985,0.015987748873230498
0.18920654296875,-0.19399658203125,1.163483146067417,-0.05182695259738886,0.021050536016420155,0.015588055151399738
0.23710693359375,-0.1149609375,1.2233583021223478,-0.04996171522884531,0.021050536016420155,0.017453292519943295
0.16525634765625,-0.17004638671875,1.2723470661672902,-0.047963246619691494,0.01665390507628177,0.016520673835671518
0.258662109375,-0.15328125,1.1770911360799001,-0.0511607963943376,0.020251148572758632,0.015987748873230498
0.2347119140625,-0.17004638671875,1.138988764044944,-0.05049464019128632,0.02278254214435346,0.016120980113840753
0.22273681640625,-0.10298583984375001,1.1144943820224729,-0.04942879026640429,0.027179173084491845,0.012390505376753635
0.15567626953125,-0.10059082031250001,1.0655056179775286,-0.04809647786030175,0.03144257278401998,0.016120980113840753
0.19160156250000002,-0.19160156250000002,1.1553183520599255,-0.04942879026640429,0.033041347671343035,0.013589586542245922
0.18441650390625,-0.16525634765625,1.122659176029961,-0.04956202150701454,0.031176110302799476,0.015987748873230498
0.17004638671875,-0.12693603515625002,1.2015855181023731,-0.04996171522884531,0.032375191468291764,0.016520673835671518
0.19639160156250002,-0.09580078125000001,1.147153558052434,-0.05036140895067608,0.02917764169364566,0.01532159267017923
0.22273681640625,-0.10777587890625001,1.1036079900124847,-0.049828483988235056,0.026646248122050832,0.012923430339194655
0.1772314453125,-0.19878662109375,1.1988639200998765,-0.050094946469455566,0.021716692219471426,0.01705359879811253
0.162861328125,-0.17483642578125,1.1444319600499373,-0.05262634004105039,0.022382848422522698,0.012923430339194655
0.21076171875000002,-0.22034179687500002,1.163483146067417,-0.05182695259738886,0.020384379813368887,0.017986217482384312
0.143701171875,-0.14609619140625002,1.1444319600499373,-0.04902909654457353,0.02078407353519965,0.012390505376753635
0.19639160156250002,-0.1772314453125,1.158039950062422,-0.05022817771006582,0.022915773384963714,0.016520673835671518
0.20357666015625,-0.143701171875,1.138988764044944,-0.04902909654457353,0.02518070447533804,0.017586523760553547
0.21794677734375,-0.17244140625,1.1117727840199763,-0.04862940282274277,0.02571362943777905,0.013722817782856177
0.1772314453125,-0.11256591796875001,1.158039950062422,-0.0464977029729787,0.03130934154340973,0.015454823910789482
0.19639160156250002,-0.14609619140625002,1.133545568039949,-0.04862940282274277,0.029444104174866172,0.013856049023466434
0.19878662109375,-0.06945556640625,1.1308239700374525,-0.04862940282274277,0.032108728987071254,0.01705359879811253
0.17004638671875,-0.19878662109375,1.0981647940074897,-0.050094946469455566,0.0305099540997482,0.014655436467127957
0.17483642578125,-0.13651611328125002,1.125380774032461,-0.04956202150701454,0.02518070447533804,0.014522205226517704
0.21555175781250002,-0.13651611328125002,1.1798127340823967,-0.04716385917602997,0.024514548272286767,0.015188361429568973
0.16046630859375,-0.17244140625,1.1961423220973781,-0.05076110267250683,0.021583460978861175,0.014122511504686942
0.17483642578125,-0.1293310546875,1.138988764044944,-0.049162327785183785,0.02118376725703041,0.014122511504686942
0.22273681640625,-0.14130615234375002,1.1117727840199763,-0.047963246619691494,0.021050536016420155,0.019052067407266345
0.21076171875000002,-0.15567626953125,1.1689263420724085,-0.05209341507860938,0.024114854550456002,0.015588055151399738
0.20118164062500002,-0.18202148437500001,1.100886392009988,-0.05062787143189658,0.02131699849764067,0.01638744259506126
0.21794677734375,-0.1580712890625,1.0301248439450692,-0.049162327785183785,0.020917304775809907,0.011191424211261349
0.162861328125,-0.12214599609375,1.1553183520599255,-0.05062787143189658,0.028644716731204643,0.01572128639200999
0.19399658203125,-0.143701171875,1.0328464419475658,-0.048895865303963275,0.028911179212425156,0.01638744259506126
0.27542724609375,-0.09101074218750001,1.0464544319600488,-0.04956202150701454,0.03077641658096871,0.013589586542245922
0.20597167968750002,-0.16046630859375,1.138988764044944,-0.049162327785183785,0.029044410453035407,0.014255742745297196
0.162861328125,-0.13172607421875002,1.2043071161048697,-0.048895865303963275,0.027445635565712355,0.01665390507628177
0.14130615234375002,-0.0814306640625,1.1607615480649187,-0.053159265003491406,0.026113323159609816,0.015454823910789482
0.18681152343750002,-0.1149609375,1.1172159800249695,-0.05209341507860938,0.02531393571594829,0.017586523760553547
0.1772314453125,-0.1293310546875,1.147153558052434,-0.04942879026640429,0.02438131703167651,0.017852986241774057
0.15567626953125,-0.1580712890625,1.125380774032461,-0.047963246619691494,0.024914241994117528,0.01212404289553313
0.21076171875000002,-0.1293310546875,1.1172159800249695,-0.049828483988235056,0.023581929588014985,0.015588055151399738
0.17004638671875,-0.13651611328125002,1.2124719101123596,-0.04956202150701454,0.023848392069235495,0.014921898948348465
0.19878662109375,-0.12214599609375,1.2124719101123596,-0.05022817771006582,0.020384379813368887,0.015854517632620243
0.19399658203125,-0.15567626953125,1.1988639200998765,-0.049295559025794036,0.02478101075350727,0.010924961730040842
0.22034179687500002,-0.16046630859375,1.1498751560549323,-0.05062787143189658,0.02438131703167651,0.013989280264076687
0.27303222656250004,-0.19160156250000002,1.1090511860174779,-0.053159265003491406,0.02584686067838931,0.011990811654922873
0.18681152343750002,-0.15567626953125,1.133545568039949,-0.05382542120654268,0.026113323159609816,0.015454823910789482
0.22273681640625,-0.1149609375,1.2015855181023731,-0.05049464019128632,0.02784532928754312,0.015987748873230498
0.17962646484375,-0.1580712890625,1.2424094881398258,-0.05076110267250683,0.02971056665608668,0.014921898948348465
0.20118164062500002,-0.1293310546875,1.2641822721598004,-0.05049464019128632,0.02478101075350727,0.014122511504686942
0.14130615234375002,-0.17483642578125,1.1662047440699137,-0.05235987755982988,0.027578866806322613,0.013856049023466434
0.21076171875000002,-0.1580712890625,1.125380774032461,-0.05102756515372735,0.026646248122050832,0.012923430339194655
0.20836669921875,-0.18441650390625,1.1934207240948815,-0.04876263406335302,0.024914241994117528,0.017586523760553547
0.21076171875000002,-0.15567626953125,1.2124719101123596,-0.049295559025794036,0.02531393571594829,0.013856049023466434
0.18441650390625,-0.1676513671875,1.1607615480649187,-0.04956202150701454,0.023981623309845747,0.017453292519943295
0.21076171875000002,-0.10298583984375001,1.2151935081148562,-0.049162327785183785,0.02571362943777905,0.01732006127933304
0.19878662109375,-0.1484912109375,1.1934207240948815,-0.048229709100912004,0.02584686067838931,0.013989280264076687
0.1676513671875,-0.15328125,1.138988764044944,-0.048895865303963275,0.032508422708902016,0.017453292519943295
0.18681152343750002,-0.19639160156250002,1.062784019975032,-0.050094946469455566,0.03064318534035846,0.015987748873230498
0.1293310546875,-0.16046630859375,1.1798127340823967,-0.050094946469455566,0.030243491618527695,0.017586523760553547
0.1676513671875,-0.16046630859375,1.0736704119850184,-0.048895865303963275,0.027045941843881597,0.013056661579804908
0.16046630859375,-0.17004638671875,1.2832334581772784,-0.04809647786030175,0.023981623309845747,0.012656967857974145
0.17244140625,-0.19399658203125,1.1553183520599255,-0.05036140895067608,0.022382848422522698,0.015987748873230498
0.17004638671875,-0.14609619140625002,1.2151935081148562,-0.04849617158213252,0.020384379813368887,0.013856049023466434
0.20118164062500002,-0.17244140625,1.1172159800249695,-0.05102756515372735,0.022249617181912443,0.013722817782856177
0.20357666015625,-0.16046630859375,1.1743695380774035,-0.04849617158213252,0.023581929588014985,0.015854517632620243
0.11735595703125,-0.12693603515625002,1.2151935081148562,-0.05089433391311709,0.0255803981971688,0.01185758041431262
0.1676513671875,-0.14130615234375002,1.1988639200998765,-0.049828483988235056,0.02784532928754312,0.017586523760553547
0.19399658203125,-0.17004638671875,1.147153558052434,-0.05102756515372735,0.03077641658096871,0.015987748873230498
0.1484912109375,-0.07903564453125,1.119937578027466,-0.053292496244101664,0.031975497746460996,0.014522205226517704
0.20597167968750002,-0.18441650390625,1.1417103620474407,-0.04809647786030175,0.03064318534035846,0.014921898948348465
0.21794677734375,-0.17483642578125,1.2260799001248444,-0.05275957128166065,0.025447166956558544,0.01572128639200999
0.17962646484375,-0.13172607421875002,1.2070287141073646,-0.04862940282274277,0.020117917332148377,0.014522205226517704
0.16525634765625,-0.13412109375,1.1743695380774035,-0.04956202150701454,0.016254211354451008,0.015188361429568973
0.19878662109375,-0.18681152343750002,1.0927215980024965,-0.053558958725322174,0.013056661579804908,0.014921898948348465
0.21555175781250002,-0.15088623046875002,1.152596754057429,-0.04942879026640429,0.016787136316892024,0.016254211354451008
0.258662109375,-0.1772314453125,1.1172159800249695,-0.050094946469455566,0.017852986241774057,0.015588055151399738
0.25387207031250003,-0.124541015625,1.138988764044944,-0.05235987755982988,0.027312404325102103,0.01638744259506126
0.22273681640625,-0.21076171875000002,1.133545568039949,-0.0511607963943376,0.032375191468291764,0.01212404289553313
0.16525634765625,-0.17004638671875,1.1743695380774035,-0.04942879026640429,0.03850382853636345,0.013856049023466434
0.18441650390625,-0.16046630859375,1.1498751560549323,-0.05102756515372735,0.04330015319833261,0.016254211354451008
0.19878662109375,-0.19639160156250002,1.128102372034956,-0.04743032165725048,0.040901990867348026,0.016787136316892024
0.11256591796875001,-0.11017089843750001,1.1770911360799001,-0.049828483988235056,0.0337075038743943,0.01572128639200999
0.19639160156250002,-0.19160156250000002,1.1308239700374525,-0.05076110267250683,0.027312404325102103,0.014788667707738212
0.22273681640625,-0.1580712890625,1.0437328339575522,-0.05036140895067608,0.017719755001163802,0.013589586542245922
0.20836669921875,-0.13412109375,1.2070287141073646,-0.05049464019128632,0.020650842294589397,0.01532159267017923
0.19160156250000002,-0.12693603515625002,1.1553183520599255,-0.051960183837999115,0.017852986241774057,0.018652373685435583
0.19639160156250002,-0.16525634765625,1.122659176029961,-0.05169372135677862,0.018519142444825328,0.0191852986478766
0.17244140625,-0.17004638671875,1.163483146067417,-0.04769678413847099,0.024114854550456002,0.0191852986478766
0.20357666015625,-0.17244140625,1.1117727840199763,-0.04956202150701454,0.02424808579106626,0.015588055151399738
0.1676513671875,-0.13172607421875002,1.1988639200998765,-0.05062787143189658,0.027179173084491845,0.01665390507628177
0.18441650390625,-0.15328125,1.1879775280898883,-0.05022817771006582,0.024647779512897018,0.012656967857974145
0.22513183593750002,-0.14609619140625002,1.0736704119850184,-0.05289280252227091,0.02278254214435346,0.015854517632620243
0.20357666015625,-0.12214599609375,1.1444319600499373,-0.04956202150701454,0.02078407353519965,0.015588055151399738
0.22034179687500002,-0.21794677734375,1.1090511860174779,-0.05222664631921963,0.023182235866184224,0.01705359879811253
0.1484912109375,-0.22034179687500002,1.2097503121098612,-0.048895865303963275,0.024114854550456002,0.01705359879811253
0.18202148437500001,-0.1484912109375,1.2151935081148562,-0.04862940282274277,0.023848392069235495,0.012656967857974145
0.20118164062500002,-0.14130615234375002,1.1798127340823967,-0.05062787143189658,0.031709035265240486,0.01505513018895872
0.1580712890625,-0.143701171875,1.1117727840199763,-0.04956202150701454,0.031975497746460996,0.015188361429568973
0.18920654296875,-0.162861328125,1.1716479400749051,-0.049695252747624805,0.03477335379927634,0.015987748873230498
0.1580712890625,-0.17004638671875,1.2478526841448172,-0.04956202150701454,0.03450689131805583,0.01572128639200999
0.18202148437500001,-0.12693603515625002,1.163483146067417,-0.0514272588755581,0.031709035265240486,0.015854517632620243
0.14609619140625002,-0.1197509765625,1.133545568039949,-0.04703062793541971,0.022382848422522698,0.016120980113840753
0.15088623046875002,-0.15088623046875002,1.0763920099875168,-0.04809647786030175,0.016787136316892024,0.01732006127933304
0.1772314453125,-0.1389111328125,1.1934207240948815,-0.050094946469455566,0.016120980113840753,0.012656967857974145
0.22273681640625,-0.18920654296875,1.1090511860174779,-0.05102756515372735,0.013989280264076687,0.015454823910789482
0.23231689453125,-0.1772314453125,1.0981647940074897,-0.04876263406335302,0.018385911204215073,0.018652373685435583
0.22034179687500002,-0.16525634765625,1.1362671660424475,-0.04996171522884531,0.017986217482384312,0.01438897398590745
0.29937744140625,-0.1772314453125,1.0763920099875168,-0.04902909654457353,0.027179173084491845,0.017852986241774057
0.21555175781250002,-0.10059082031250001,1.125380774032461,-0.04876263406335302,0.031842266505850744,0.013989280264076687
0.18441650390625,-0.17244140625,1.2396878901373292,-0.05156049011616837,0.04543185304809667,0.017719755001163802
